aX,aY,aZ,gX,gY,gZ
0.133,0.920,-0.348,-0.732,16.052,2.930
0.184,0.926,-0.319,0.244,15.320,7.996
0.120,0.919,-0.368,0.427,12.817,11.169
0.205,0.911,-0.349,1.160,11.047,11.841
0.103,0.911,-0.378,0.610,10.681,14.282
0.133,0.909,-0.352,1.282,11.414,14.587
0.055,0.906,-0.361,0.366,12.268,16.296
0.125,0.916,-0.349,0.671,11.292,16.846
0.027,0.930,-0.361,0.244,11.414,18.677
0.183,0.940,-0.353,1.038,13.550,16.418
0.070,0.918,-0.393,0.122,15.015,17.456
0.124,0.904,-0.358,0.488,16.296,16.724
-0.004,0.965,-0.367,0.793,18.188,18.005
0.071,0.919,-0.339,2.197,20.081,17.029
0.055,0.952,-0.348,2.869,19.531,19.043
0.167,0.891,-0.357,3.845,19.409,18.616
0.120,0.929,-0.344,3.845,19.531,20.142
0.039,0.906,-0.353,4.089,18.433,21.790
0.059,0.942,-0.357,5.005,18.982,22.644
-0.029,0.911,-0.357,3.906,20.325,24.780
0.008,0.976,-0.353,6.470,20.325,26.001
0.144,0.881,-0.379,6.531,20.630,25.452
0.078,0.941,-0.388,7.141,20.935,27.405
0.200,0.911,-0.375,7.568,20.386,26.001
-0.062,0.953,-0.364,7.019,19.043,31.189
-0.005,0.961,-0.334,9.705,18.066,33.447
0.010,0.974,-0.329,10.986,17.334,36.987
0.143,0.858,-0.367,10.925,16.602,36.743
0.235,0.877,-0.386,10.071,15.991,37.964
-0.112,0.997,-0.344,10.498,15.381,41.687
-0.020,0.939,-0.344,11.169,16.113,42.236
-0.008,1.041,-0.336,13.611,16.541,45.227
0.048,0.911,-0.411,13.428,17.517,45.654
0.099,0.950,-0.398,14.099,19.348,46.448
-0.179,0.976,-0.393,13.123,21.057,49.194
0.008,0.970,-0.313,15.686,23.682,49.011
0.073,0.937,-0.337,14.404,25.085,52.002
-0.106,1.054,-0.348,17.029,25.879,54.626
0.218,0.949,-0.419,16.724,24.414,52.979
-0.135,1.111,-0.524,16.418,23.437,58.350
0.070,1.175,-0.401,20.508,26.978,55.542
-0.002,1.124,-0.419,20.508,27.588,58.899
0.002,1.198,-0.330,22.217,31.311,58.289
0.094,1.169,-0.323,20.325,33.020,60.486
0.006,1.245,-0.312,21.484,30.884,63.782
0.128,1.307,-0.250,22.705,31.677,65.796
0.081,1.240,-0.337,19.836,30.029,71.289
-0.021,1.292,-0.309,19.287,31.067,74.829
0.136,1.286,-0.251,20.630,32.166,75.134
0.129,1.208,-0.295,19.470,34.668,77.820
0.056,1.219,-0.286,19.958,36.194,81.604
0.045,1.206,-0.293,19.775,38.696,83.191
-0.015,1.193,-0.328,20.813,41.565,85.693
0.043,1.258,-0.304,22.583,46.021,88.562
0.104,1.234,-0.335,21.484,48.584,90.881
0.161,1.229,-0.368,21.606,47.852,94.604
0.136,1.133,-0.430,18.311,46.326,98.450
0.128,1.056,-0.419,13.489,45.105,101.990
0.117,0.998,-0.373,6.653,40.955,104.248
-0.037,1.035,-0.326,3.967,36.316,105.469
-0.146,1.072,-0.313,2.380,32.715,105.774
-0.166,1.130,-0.302,3.174,28.015,105.286
-0.188,1.109,-0.288,5.066,27.100,103.027
-0.253,1.074,-0.357,3.906,24.841,103.149
-0.284,1.054,-0.425,1.831,20.508,101.318
-0.337,1.054,-0.439,0.061,19.775,97.778
-0.294,1.007,-0.427,0.366,23.132,91.553
-0.223,0.913,-0.429,0.916,25.391,85.815
-0.162,0.806,-0.409,2.808,28.931,79.834
-0.191,0.691,-0.384,4.211,31.555,74.585
-0.245,0.609,-0.347,8.667,36.377,70.190
-0.389,0.516,-0.324,13.733,42.908,63.721
-0.394,0.490,-0.328,18.616,49.316,53.589
-0.187,0.497,-0.287,24.170,50.232,38.452
-0.024,0.482,-0.243,26.794,48.462,22.522
0.084,0.481,-0.195,28.748,44.312,10.742
0.071,0.456,-0.168,28.687,38.452,2.808
0.068,0.389,-0.154,28.198,33.020,-4.150
0.131,0.300,-0.132,26.917,28.320,-13.977
0.160,0.257,-0.108,25.146,22.766,-26.794
0.175,0.282,-0.090,22.278,14.526,-41.199
0.177,0.323,-0.082,18.799,4.028,-52.368
0.172,0.360,-0.085,14.160,-10.254,-61.951
0.141,0.405,-0.090,9.583,-25.757,-72.205
0.054,0.461,-0.075,6.470,-37.292,-83.496
-0.016,0.515,-0.060,4.578,-43.579,-94.360
-0.005,0.541,-0.057,3.052,-49.316,-103.638
0.011,0.555,-0.056,0.732,-54.382,-111.816
0.028,0.595,-0.071,-1.709,-58.899,-118.896
0.051,0.656,-0.083,-2.808,-64.026,-125.000
0.055,0.723,-0.098,-3.967,-67.444,-131.226
0.051,0.778,-0.141,-6.042,-70.068,-138.062
0.034,0.853,-0.166,-7.996,-73.425,-144.165
0.045,0.844,-0.208,-15.991,-83.313,-152.344
0.006,1.141,-0.249,-13.672,-82.764,-149.414
-0.097,0.935,-0.300,-16.174,-70.801,-163.086
-0.098,1.094,-0.343,-4.517,-68.054,-158.569
-0.105,1.148,-0.399,5.127,-60.242,-155.579
-0.088,1.140,-0.423,8.240,-55.969,-155.457
-0.131,1.136,-0.449,6.653,-50.842,-158.142
-0.167,1.141,-0.449,2.991,-45.715,-162.720
-0.193,1.177,-0.467,2.319,-37.964,-162.354
-0.183,1.219,-0.473,-0.854,-30.701,-163.452
-0.158,1.235,-0.489,-6.592,-24.963,-166.748
-0.083,1.248,-0.492,-13.733,-22.888,-171.021
-0.032,1.265,-0.502,-21.423,-24.048,-173.157
0.017,1.263,-0.515,-30.823,-28.625,-173.279
0.110,1.275,-0.512,-40.466,-37.903,-170.166
0.112,1.302,-0.499,-48.035,-49.866,-164.917
0.013,1.306,-0.486,-53.040,-59.143,-159.363
-0.069,1.300,-0.498,-57.495,-66.650,-154.114
-0.274,1.345,-0.438,-57.983,-65.308,-148.682
-0.546,1.420,-0.382,-51.453,-51.392,-144.226
-0.633,1.395,-0.345,-43.884,-32.593,-139.282
-0.610,1.401,-0.282,-33.508,-11.414,-131.531
-0.553,1.343,-0.304,-25.513,3.174,-121.826
-0.504,1.244,-0.345,-20.813,11.902,-112.427
-0.474,1.181,-0.360,-19.043,15.747,-101.868
-0.487,1.163,-0.322,-17.395,17.639,-90.088
-0.496,1.151,-0.253,-15.198,18.433,-76.355
-0.517,1.133,-0.183,-13.000,18.372,-61.707
-0.520,1.130,-0.130,-10.803,17.456,-47.180
-0.512,1.115,-0.091,-8.606,12.573,-31.494
-0.537,1.081,-0.057,-5.981,7.263,-15.198
-0.526,1.063,-0.068,-5.249,1.465,-0.305
-0.498,1.066,-0.075,-4.639,-5.798,13.367
-0.490,1.067,-0.083,-4.028,-12.817,26.367
-0.496,1.092,-0.076,-2.747,-18.005,38.818
-0.463,1.066,-0.085,-1.648,-22.217,50.537
-0.401,1.073,-0.085,-0.183,-27.039,60.669
-0.377,1.073,-0.082,2.686,-27.527,68.909
-0.146,1.004,-0.086,5.127,-29.724,72.754
0.330,0.868,-0.257,5.615,-33.081,66.833
1.091,0.703,-0.427,1.892,-37.720,43.335
1.506,0.474,-0.513,-6.714,-43.030,19.958
1.247,0.516,-0.448,-13.733,-46.082,13.855
0.708,0.878,-0.152,-9.399,-47.546,20.447
-0.052,1.278,-0.100,-6.470,-49.988,34.912
-0.355,1.588,-0.287,-5.066,-54.016,49.072
-0.334,1.587,-0.507,-7.751,-52.368,55.115
-0.110,1.505,-0.557,-8.789,-41.443,56.580
0.137,1.413,-0.261,1.282,-18.921,51.941
0.277,1.102,-0.150,5.859,-3.113,46.753
0.024,0.977,-0.140,1.892,8.362,49.316
-0.078,1.067,-0.093,1.892,13.062,51.758
0.079,1.035,-0.170,3.296,11.658,46.631
0.347,0.908,-0.237,2.075,7.141,38.757
0.398,0.769,-0.283,-1.160,0.244,35.095
0.187,0.744,-0.381,-4.150,-5.554,35.950
0.005,0.804,-0.400,-3.418,-10.864,33.752
0.012,0.873,-0.429,-2.075,-12.207,27.405
0.147,0.850,-0.371,-1.587,-8.972,18.799
0.224,0.835,-0.286,-2.930,-4.822,14.526
0.021,0.872,-0.274,-5.676,1.221,16.296
0.151,0.951,-0.229,-2.930,7.568,13.306
0.202,0.927,-0.179,-3.296,10.620,12.817
0.215,0.917,-0.239,-6.226,8.728,15.442
0.417,0.917,-0.210,-8.179,1.953,13.794
0.179,0.904,-0.237,-12.207,-2.136,17.456
0.318,0.934,-0.267,-11.780,-4.028,15.564
0.259,0.881,-0.284,-13.977,-7.202,15.503
0.145,0.940,-0.351,-14.893,-6.775,17.456
0.197,0.922,-0.401,-13.855,-6.287,15.259
0.138,0.951,-0.386,-12.146,-2.991,15.625
0.140,0.917,-0.422,-10.132,-0.305,14.282
0.217,0.909,-0.412,-8.667,2.136,11.963
0.039,0.950,-0.406,-7.812,7.446,12.634
0.088,0.943,-0.378,-5.127,10.437,11.597
0.284,0.939,-0.422,-3.662,11.230,8.911
0.233,0.882,-0.417,-4.089,11.292,9.827
0.168,0.930,-0.357,-2.563,12.268,10.864
0.162,0.923,-0.338,-0.488,13.428,9.460
0.098,0.907,-0.304,-0.061,13.855,11.047
0.120,0.942,-0.352,0.122,10.986,12.512
0.263,0.901,-0.337,2.075,8.972,9.949
0.159,0.879,-0.340,1.099,7.141,9.705
0.110,0.870,-0.337,0.610,5.249,8.301
0.112,0.902,-0.339,1.343,5.859,7.141
0.146,0.913,-0.326,1.892,6.470,5.981
0.133,0.879,-0.340,1.526,5.432,5.981
0.147,0.911,-0.334,1.587,5.859,6.470
0.071,0.902,-0.360,1.099,6.104,7.751
0.186,0.902,-0.352,1.526,5.981,7.080
0.162,0.874,-0.352,0.244,4.089,8.179
0.165,0.908,-0.326,0.549,4.028,8.362
0.067,0.912,-0.345,0.061,5.188,8.545
0.120,0.941,-0.320,0.916,5.432,8.850
0.067,0.917,-0.347,0.427,5.615,10.376
0.209,0.927,-0.304,1.648,7.751,9.460
0.153,0.876,-0.332,-0.122,7.019,11.230
0.255,0.918,-0.294,-0.061,6.958,12.268
0.096,0.906,-0.358,-1.465,5.432,16.113
0.163,0.936,-0.347,-1.160,5.188,16.907
0.079,0.899,-0.411,-2.197,3.174,19.409
0.167,0.923,-0.367,-0.977,5.371,17.822
0.091,0.906,-0.371,-0.610,7.751,17.212
0.109,0.915,-0.339,0.671,8.362,17.029
0.022,0.913,-0.370,0.488,9.277,18.005
0.076,0.930,-0.319,0.671,12.085,17.700
-0.073,0.949,-0.316,0.000,13.611,20.569
0.142,0.917,-0.305,0.854,14.465,19.531
0.210,0.881,-0.338,-0.916,13.855,21.179
0.218,0.899,-0.362,-0.488,13.000,21.484
0.189,0.901,-0.358,-0.244,11.169,22.217
-0.078,0.964,-0.388,0.427,11.658,25.146
-0.058,0.951,-0.371,3.296,15.442,25.330
0.079,0.953,-0.361,5.005,16.968,26.062
0.202,0.862,-0.405,5.310,17.944,24.658
0.226,0.874,-0.369,3.723,17.273,25.513
-0.049,0.994,-0.381,4.578,15.503,28.015
-0.006,0.917,-0.340,5.737,15.442,28.442
0.076,0.990,-0.338,7.690,16.602,30.762
0.131,0.880,-0.377,6.714,16.113,30.823
0.197,0.942,-0.353,7.263,14.893,32.043
-0.046,0.938,-0.395,6.470,14.893,35.400
0.085,0.963,-0.331,9.033,15.198,35.400
0.158,0.923,-0.380,8.728,14.771,37.415
-0.051,0.954,-0.386,9.277,13.733,41.504
0.125,0.962,-0.316,11.169,15.381,40.344
0.037,0.946,-0.376,9.155,14.038,43.518
-0.041,1.014,-0.356,11.719,15.381,43.396
0.114,0.936,-0.336,11.719,18.005,43.884
-0.071,0.995,-0.383,12.207,17.456,46.570
0.033,0.935,-0.354,12.817,18.494,47.058
0.004,0.987,-0.375,13.855,20.081,50.537
-0.033,0.948,-0.384,13.855,21.790,51.941
0.130,0.971,-0.323,15.076,23.010,53.345
-0.040,1.008,-0.405,14.771,22.156,58.411
0.004,1.033,-0.424,16.235,22.461,59.326
0.203,1.057,-0.448,16.907,23.193,60.303
0.021,1.105,-0.478,15.564,24.963,64.148
-0.003,1.171,-0.382,16.113,28.076,65.552
0.118,1.183,-0.362,15.869,28.442,68.787
-0.007,1.238,-0.376,15.869,27.527,74.951
0.116,1.250,-0.338,15.808,28.320,78.247
0.115,1.281,-0.335,14.771,28.076,83.252
0.117,1.300,-0.302,14.343,28.564,87.585
0.125,1.288,-0.281,12.207,26.855,92.896

0.016,1.083,-0.371,19.531,30.701,55.420
-0.034,1.037,-0.399,20.386,33.020,54.932
0.035,1.035,-0.370,20.935,33.142,54.993
-0.068,1.092,-0.375,21.851,33.813,56.580
-0.018,1.064,-0.362,22.461,34.180,57.800
-0.048,1.205,-0.307,27.161,35.034,59.326
0.052,1.114,-0.341,27.954,35.278,58.960
0.016,1.157,-0.369,28.870,32.898,61.035
-0.045,1.157,-0.343,28.381,31.799,62.805
0.028,1.164,-0.294,29.541,29.724,64.087
-0.078,1.190,-0.315,29.236,28.198,67.139
0.080,1.137,-0.219,30.701,26.733,67.932
0.090,1.079,-0.265,28.381,23.560,70.557
0.102,1.051,-0.199,28.625,21.667,71.655
0.064,0.974,-0.279,24.658,16.846,74.890
-0.076,1.053,-0.250,22.034,13.672,79.651
-0.099,1.054,-0.259,21.362,11.230,82.581
-0.007,1.068,-0.264,20.447,9.338,85.266
0.088,1.056,-0.289,18.066,6.470,87.524
0.048,1.006,-0.359,15.564,5.432,91.553
-0.022,1.056,-0.375,13.123,6.287,95.032
-0.032,1.032,-0.391,9.399,6.226,97.900
0.014,1.085,-0.366,8.179,6.714,101.685
0.073,1.087,-0.360,6.836,5.615,103.149
0.075,1.107,-0.364,6.897,3.418,106.201
-0.071,1.139,-0.357,7.812,0.549,109.436
-0.131,1.152,-0.362,8.850,-2.319,110.596
-0.148,1.169,-0.391,8.850,-5.493,110.779
-0.202,1.204,-0.414,9.338,-9.705,110.291
-0.208,1.225,-0.453,12.207,-10.010,108.948
-0.105,1.123,-0.476,13.428,-9.705,104.065
-0.125,1.020,-0.480,14.648,-7.202,100.769
-0.152,0.922,-0.475,16.663,-0.610,93.628
-0.106,0.823,-0.451,19.287,6.836,85.754
-0.153,0.721,-0.429,22.705,13.062,79.590
-0.289,0.581,-0.377,27.893,20.874,72.815
-0.364,0.503,-0.328,31.311,27.222,62.805
-0.283,0.495,-0.353,33.508,28.442,48.706
0.005,0.523,-0.305,36.499,23.315,31.067
-0.071,0.607,-0.149,35.400,16.724,19.287
-0.262,0.552,-0.482,29.053,9.705,17.029
0.093,0.468,-0.412,30.029,5.310,2.625
0.302,0.269,-0.322,29.419,3.052,-15.564
0.286,0.193,-0.232,26.794,0.916,-30.640
0.200,0.202,-0.195,24.231,-1.221,-44.006
0.182,0.224,-0.182,19.714,-4.700,-56.519
0.166,0.265,-0.177,16.296,-10.254,-69.275
0.130,0.309,-0.182,11.963,-14.099,-81.604
0.125,0.335,-0.203,7.080,-19.897,-94.482
0.102,0.367,-0.203,3.357,-25.269,-107.788
0.101,0.398,-0.204,0.122,-28.992,-120.850
0.106,0.437,-0.218,-3.357,-32.776,-132.385
0.118,0.470,-0.226,-6.775,-37.964,-142.639
0.122,0.507,-0.220,-10.437,-43.152,-151.489
0.136,0.556,-0.228,-14.038,-46.875,-160.522
0.142,0.639,-0.222,-16.846,-50.476,-169.434
0.125,0.737,-0.225,-18.738,-52.856,-178.162
0.099,0.840,-0.235,-20.813,-54.626,-186.279
0.113,0.853,-0.257,-29.968,-60.547,-197.327
0.076,1.154,-0.271,-29.663,-58.167,-196.655
-0.067,0.913,-0.352,-35.156,-39.246,-220.093
-0.043,1.179,-0.406,-25.024,-34.058,-218.567
-0.053,1.261,-0.428,-15.320,-25.757,-215.820
-0.063,1.362,-0.437,-9.583,-23.071,-212.402
-0.071,1.359,-0.410,-13.306,-24.902,-216.125
-0.074,1.402,-0.418,-14.282,-25.940,-214.050
-0.005,1.460,-0.424,-18.005,-31.982,-213.867
0.034,1.514,-0.434,-23.437,-40.466,-216.187
-0.005,1.549,-0.420,-28.320,-46.143,-216.309
-0.132,1.550,-0.409,-31.799,-48.523,-214.355
-0.184,1.535,-0.404,-35.583,-49.622,-211.670
-0.233,1.569,-0.421,-36.621,-50.720,-207.031
-0.269,1.648,-0.428,-34.729,-49.255,-200.806
-0.307,1.708,-0.423,-30.029,-44.983,-192.322
-0.359,1.713,-0.443,-24.231,-37.170,-182.251
-0.405,1.623,-0.489,-19.653,-26.978,-171.509
-0.485,1.522,-0.380,-15.869,-14.160,-159.607
-0.505,1.392,-0.328,-14.526,-5.249,-145.813
-0.449,1.316,-0.306,-13.550,0.793,-131.836
-0.417,1.232,-0.296,-15.503,3.479,-115.784
-0.424,1.184,-0.267,-17.639,2.197,-100.342
-0.443,1.165,-0.227,-18.066,-0.061,-85.876
-0.434,1.136,-0.186,-18.005,-3.845,-70.618
-0.453,1.116,-0.163,-16.113,-7.263,-54.199
-0.442,1.098,-0.148,-13.123,-9.766,-37.476
-0.419,1.095,-0.146,-10.071,-12.207,-19.897
-0.379,1.079,-0.162,-7.385,-15.320,-2.625
-0.323,1.068,-0.170,-5.615,-18.616,12.939
-0.277,1.065,-0.177,-4.395,-23.132,27.893
-0.272,1.043,-0.175,-3.662,-27.649,40.955
-0.281,1.027,-0.166,-2.808,-30.640,52.368
-0.289,1.016,-0.180,-3.174,-32.715,62.622
-0.298,1.030,-0.198,-3.113,-34.546,71.472
-0.307,1.029,-0.209,-2.747,-33.081,78.674
-0.291,1.021,-0.223,-0.305,-24.963,82.764
-0.036,0.988,-0.226,1.404,-20.508,82.275
0.480,0.891,-0.382,1.709,-17.700,71.716
1.064,0.783,-0.354,1.770,-14.709,50.171
1.334,0.586,-0.416,-3.296,-12.085,33.752
1.094,0.638,-0.339,-6.653,-10.864,30.884
0.621,0.782,-0.224,-7.568,-12.939,37.415
0.301,0.998,-0.151,-4.639,-19.775,45.654
0.133,1.144,-0.158,-3.906,-27.954,54.199
0.052,1.250,-0.280,-6.958,-31.677,59.387
0.310,1.284,-0.321,-7.751,-33.386,56.335
0.286,1.148,-0.388,-11.108,-31.189,53.772
0.175,1.113,-0.387,-12.207,-26.184,55.359
-0.037,1.155,-0.300,-10.742,-19.104,58.167
-0.069,1.165,-0.325,-9.216,-13.428,59.814
0.079,1.115,-0.337,-8.972,-8.179,57.495
0.197,1.071,-0.257,-6.836,-0.549,53.711
0.169,0.981,-0.234,-5.005,5.981,52.002
0.150,0.895,-0.316,-3.967,8.545,50.354
0.135,0.848,-0.396,-3.357,10.315,45.837
0.091,0.865,-0.399,-3.174,11.414,40.894
0.169,0.895,-0.389,-1.953,11.169,35.156
0.229,0.856,-0.340,-2.136,8.667,30.884
0.253,0.841,-0.330,-2.991,6.531,28.931
0.207,0.850,-0.299,-3.906,6.470,28.198
0.174,0.872,-0.279,-2.991,8.545,27.100
0.171,0.896,-0.277,-3.967,12.146,26.001
0.277,0.894,-0.228,-5.249,14.404,24.048
0.286,0.900,-0.241,-7.874,18.921,23.376
0.184,0.895,-0.253,-9.521,20.447,25.085
0.228,0.923,-0.267,-9.094,21.362,25.940
0.188,0.877,-0.299,-11.292,18.738,27.893
0.322,0.906,-0.276,-9.949,17.700,27.771
0.316,0.873,-0.297,-11.169,15.076,28.809
0.252,0.877,-0.336,-12.756,12.085,31.433
0.210,0.925,-0.454,-14.038,7.080,33.386
0.195,0.958,-0.427,-11.780,3.845,33.997
0.096,0.969,-0.458,-9.766,3.845,35.583
0.278,0.906,-0.444,-5.920,3.662,31.616
0.183,0.897,-0.418,-5.493,5.554,30.945
0.191,0.911,-0.401,-2.869,11.353,28.381
0.103,0.868,-0.385,-4.150,15.137,27.649
-0.000,0.982,-0.395,-4.822,19.958,30.151
0.062,0.942,-0.400,-3.174,19.897,28.687
0.190,0.962,-0.335,-1.221,18.066,26.062
0.247,0.868,-0.358,-0.793,15.198,22.034
0.186,0.845,-0.339,-1.038,14.954,19.531
-0.012,0.954,-0.338,-0.916,14.465,18.433
0.013,0.886,-0.356,-0.122,15.137,14.587
0.022,0.980,-0.344,0.610,14.771,13.184
0.173,0.869,-0.350,0.488,14.099,9.216
0.147,0.906,-0.343,1.099,12.939,8.484
0.068,0.851,-0.368,-0.793,13.184,6.592
0.020,0.941,-0.370,-0.732,12.268,6.714
0.142,0.899,-0.389,-0.671,12.329,3.357
0.169,0.910,-0.363,-1.709,10.620,4.395
0.032,0.928,-0.397,-1.526,8.362,5.859
0.225,0.912,-0.369,0.610,6.409,3.235
0.084,0.874,-0.385,-1.465,4.028,5.676
0.064,0.921,-0.388,0.183,4.211,4.761
0.205,0.873,-0.370,0.122,4.150,2.319
0.033,0.896,-0.352,-1.343,2.441,5.615
0.135,0.935,-0.341,0.183,3.479,3.906
0.074,0.908,-0.367,-1.038,3.723,5.188
0.096,0.935,-0.356,-0.122,2.808,6.104
0.087,0.938,-0.375,1.404,3.418,7.202
0.224,0.865,-0.370,1.587,3.418,7.690
0.042,0.931,-0.374,0.977,2.075,12.390
0.038,0.910,-0.391,2.319,0.610,13.306
0.249,0.887,-0.382,2.808,1.831,11.902
0.101,0.890,-0.391,1.160,3.113,14.038
0.079,0.930,-0.387,3.235,5.127,15.076
0.152,0.943,-0.380,4.089,5.981,16.968
0.014,0.906,-0.410,3.418,6.104,21.667
0.101,0.949,-0.397,5.493,7.080,22.766
0.118,0.880,-0.380,5.188,7.629,24.109
0.101,0.902,-0.362,5.554,6.958,25.024
0.046,0.939,-0.351,6.042,7.263,26.184
0.006,0.928,-0.362,6.226,8.057,26.245
0.070,0.924,-0.373,6.287,7.812,25.696
0.011,0.933,-0.371,6.165,8.850,26.428
-0.036,0.914,-0.377,5.920,10.742,25.574
0.031,0.938,-0.367,7.263,11.047,24.719
0.044,0.893,-0.387,7.019,12.573,25.696
0.052,0.923,-0.367,8.118,13.062,25.391
0.012,0.896,-0.380,7.141,11.902,26.489
0.019,0.941,-0.359,8.362,14.526,26.367
-0.087,0.930,-0.384,7.202,16.541,27.100
0.079,0.919,-0.362,8.301,19.470,24.658
-0.021,0.962,-0.388,9.094,22.644,25.696
0.086,0.907,-0.374,8.484,23.560,25.879
-0.030,1.002,-0.359,9.888,24.719,28.748
0.036,0.889,-0.375,9.949,26.306,30.457
0.033,0.982,-0.353,10.925,25.818,33.203
0.107,0.915,-0.391,11.292,25.452,34.607
0.083,0.945,-0.379,11.108,25.330,37.170
-0.013,0.930,-0.384,11.597,23.682,40.588
0.066,0.967,-0.354,13.977,23.621,42.419
-0.124,0.978,-0.394,11.719,21.240,48.035
-0.012,1.073,-0.310,13.855,23.926,46.875
0.079,0.990,-0.375,14.160,25.146,47.668
0.031,1.083,-0.376,15.930,24.170,46.204
0.111,1.032,-0.422,13.733,23.804,46.021
-0.209,1.170,-0.459,12.695,25.391,49.194
-0.112,1.198,-0.321,13.611,28.687,49.072
0.008,1.220,-0.262,18.311,31.616,50.598
0.152,1.108,-0.296,19.409,30.884,51.270
0.174,1.096,-0.361,18.555,28.198,54.871
-0.043,1.244,-0.402,18.188,26.306,59.448
-0.013,1.211,-0.404,17.761,25.696,63.110
0.018,1.296,-0.362,19.531,28.625,66.467
0.097,1.165,-0.364,18.982,30.762,68.909
0.112,1.171,-0.314,20.203,33.447,72.327
-0.007,1.097,-0.322,18.066,34.058,76.782
0.049,1.121,-0.265,18.250,37.109,80.444
0.077,1.111,-0.251,16.968,39.734,82.947
-0.089,1.146,-0.276,16.724,40.161,87.463
0.009,1.188,-0.234,19.043,41.687,88.562
0.078,1.155,-0.293,18.677,42.419,90.515
-0.003,1.170,-0.369,19.348,41.138,94.238
0.105,1.121,-0.368,18.738,41.504,94.727
0.046,1.039,-0.451,11.780,37.842,97.168
0.042,1.030,-0.444,7.202,31.921,97.595
0.012,1.007,-0.385,2.136,25.513,100.403
-0.085,1.047,-0.317,2.686,24.597,103.394
-0.149,1.055,-0.310,3.357,24.414,105.164
-0.152,1.045,-0.341,2.686,21.118,104.919
-0.323,1.070,-0.390,-0.488,17.273,106.934
-0.418,1.120,-0.443,-2.258,16.113,106.262
-0.276,1.063,-0.455,-2.502,16.602,102.173
-0.182,0.977,-0.419,-2.625,18.372,97.046
-0.152,0.890,-0.379,-0.854,21.790,92.896
-0.176,0.789,-0.356,1.343,25.757,87.952
-0.268,0.689,-0.312,2.869,30.945,81.848
-0.339,0.693,-0.305,4.822,34.912,74.585
-0.360,0.596,-0.291,6.836,34.851,67.322
-0.340,0.587,-0.252,9.277,32.410,58.167
-0.170,0.581,-0.232,11.475,28.320,45.776
-0.004,0.573,-0.217,13.611,22.095,33.936
0.066,0.531,-0.195,15.259,14.771,23.071
0.043,0.463,-0.180,16.663,7.507,13.367
0.027,0.401,-0.191,17.212,0.671,3.235
0.077,0.384,-0.187,18.005,-5.310,-7.080
0.078,0.378,-0.171,18.127,-11.719,-16.907

-0.041,1.307,-0.348,22.705,37.781,81.970
0.169,1.243,-0.282,24.902,42.175,87.341
0.135,1.268,-0.269,25.085,43.396,92.834
0.149,1.265,-0.274,26.245,42.664,97.595
0.156,1.237,-0.292,26.245,40.649,102.051
0.053,1.238,-0.361,22.400,38.879,106.262
0.164,1.166,-0.373,19.592,36.316,109.070
0.150,1.098,-0.366,15.930,37.903,111.816
0.100,1.032,-0.368,12.390,33.936,115.112
0.018,1.020,-0.413,7.141,23.499,116.333
-0.037,1.078,-0.368,4.456,14.465,114.624
-0.213,1.115,-0.334,6.348,14.038,112.183
-0.306,1.087,-0.367,7.141,14.343,112.244
-0.385,1.076,-0.399,7.019,12.390,110.596
-0.343,1.026,-0.432,6.714,14.526,106.995
-0.208,0.959,-0.465,6.653,14.771,101.440
-0.144,0.862,-0.430,6.714,15.503,95.825
-0.201,0.764,-0.385,7.690,18.799,89.600
-0.278,0.626,-0.357,8.545,24.475,82.153
-0.338,0.561,-0.325,9.827,27.954,74.341
-0.402,0.482,-0.318,10.315,28.564,66.956
-0.399,0.463,-0.290,10.803,29.419,55.908
-0.272,0.496,-0.265,12.817,29.480,42.114
-0.155,0.495,-0.261,14.404,27.649,28.503
-0.030,0.510,-0.210,17.090,24.597,15.747
-0.003,0.488,-0.168,19.348,19.897,6.287
-0.006,0.432,-0.145,22.278,14.282,-0.488
0.028,0.330,-0.128,24.231,8.301,-7.751
0.072,0.260,-0.101,25.818,2.014,-17.639
0.087,0.219,-0.115,25.940,-5.432,-27.771
0.098,0.257,-0.112,24.597,-12.329,-38.574
0.034,0.316,-0.101,22.217,-21.484,-47.974
-0.018,0.380,-0.114,20.325,-31.006,-56.396
-0.005,0.413,-0.126,17.456,-39.734,-66.162
-0.027,0.446,-0.135,14.587,-47.058,-76.416
-0.029,0.467,-0.152,11.414,-52.490,-85.693
0.017,0.490,-0.159,8.362,-58.350,-94.604
0.029,0.516,-0.176,5.310,-64.209,-103.149
0.014,0.573,-0.197,3.052,-68.359,-110.718
-0.004,0.628,-0.225,1.709,-70.557,-118.591
-0.019,0.691,-0.245,-0.427,-72.388,-126.953
-0.032,0.747,-0.256,-2.502,-73.975,-133.057
-0.070,0.794,-0.274,-4.150,-71.594,-138.306
-0.123,0.840,-0.310,-5.554,-65.613,-143.738
-0.170,0.902,-0.377,-4.395,-56.824,-149.902
-0.144,0.894,-0.480,-8.728,-54.138,-158.081
-0.137,1.034,-0.485,-7.568,-39.307,-167.725
-0.137,1.076,-0.481,-7.324,-29.724,-177.612
-0.107,1.108,-0.458,2.441,-25.146,-169.312
-0.126,1.165,-0.430,7.080,-21.057,-165.405
-0.200,1.203,-0.398,7.568,-11.658,-167.236
-0.188,1.209,-0.398,2.686,-8.545,-173.584
-0.133,1.257,-0.419,0.977,-4.456,-172.668
-0.033,1.275,-0.436,-5.493,-7.141,-174.500
0.026,1.273,-0.436,-14.404,-13.916,-177.979
0.070,1.261,-0.437,-22.949,-24.170,-177.979
0.116,1.288,-0.414,-29.419,-36.743,-174.622
0.150,1.302,-0.362,-34.241,-50.171,-169.739
0.145,1.293,-0.347,-38.452,-62.500,-164.429
0.059,1.323,-0.368,-40.955,-70.435,-158.813
-0.068,1.351,-0.384,-40.649,-72.632,-154.663
-0.179,1.380,-0.389,-37.720,-67.932,-151.917
-0.240,1.374,-0.385,-33.875,-59.387,-149.231
-0.268,1.375,-0.373,-28.931,-47.913,-145.020
-0.265,1.344,-0.375,-24.170,-35.950,-141.052
-0.245,1.315,-0.387,-20.447,-24.902,-135.559
-0.236,1.284,-0.392,-16.052,-15.503,-128.601
-0.211,1.227,-0.411,-13.916,-10.620,-121.765
-0.214,1.178,-0.363,-13.428,-7.202,-115.540
-0.242,1.125,-0.348,-12.939,-2.808,-108.276
-0.252,1.081,-0.344,-13.245,0.549,-98.999
-0.248,1.068,-0.332,-14.404,1.892,-90.210
-0.271,1.068,-0.309,-14.893,3.052,-81.360
-0.328,1.067,-0.284,-14.709,5.981,-70.679
-0.348,1.060,-0.263,-13.428,9.155,-59.143
-0.320,1.034,-0.226,-11.230,9.766,-48.340
-0.289,1.026,-0.198,-9.094,9.216,-38.025
-0.265,1.016,-0.175,-7.202,7.019,-27.161
-0.245,1.018,-0.182,-5.127,3.479,-16.052
-0.252,1.030,-0.171,-2.991,1.526,-5.432
-0.244,0.992,-0.181,-2.502,-1.343,4.883
-0.244,0.991,-0.187,-1.892,-4.761,16.174
-0.241,0.994,-0.185,-1.465,-6.592,27.466
-0.238,1.008,-0.196,-0.244,-6.836,37.537
-0.215,0.991,-0.209,-0.244,-11.230,47.791
-0.244,0.983,-0.229,-0.793,-16.907,57.678
-0.332,1.024,-0.194,-0.916,-16.968,65.430
-0.219,0.999,-0.215,0.305,-17.212,71.289
0.218,0.966,-0.286,2.686,-15.259,67.078
1.032,0.875,-0.354,5.432,-14.648,49.133
1.539,0.688,-0.349,3.845,-15.686,31.799
1.340,0.578,-0.322,-2.808,-11.047,25.635
0.723,0.708,-0.173,-5.615,-9.766,31.250
0.262,0.975,-0.073,-1.526,-16.602,40.710
0.071,1.126,-0.175,-0.610,-25.757,48.096
0.156,1.218,-0.309,-4.150,-29.663,49.744
0.275,1.187,-0.371,-7.507,-31.982,48.889
0.172,1.107,-0.427,-10.925,-32.837,50.476
0.126,1.082,-0.451,-11.841,-31.555,51.086
0.179,1.080,-0.443,-11.353,-28.442,49.561
0.116,1.110,-0.369,-11.292,-22.400,49.316
0.063,1.140,-0.290,-9.216,-15.076,50.964
0.012,1.056,-0.319,-7.080,-9.644,51.270
0.158,0.987,-0.357,-4.456,-5.920,48.035
0.252,0.925,-0.369,-1.465,-0.854,41.992
0.171,0.856,-0.347,-1.526,3.784,37.476
0.067,0.888,-0.394,-1.892,5.737,34.790
0.220,0.904,-0.358,0.183,3.601,29.175
0.198,0.865,-0.332,-0.549,2.075,27.893
0.310,0.888,-0.293,-0.793,0.610,26.611
0.266,0.888,-0.205,-0.977,1.099,26.001
0.173,0.899,-0.296,-2.075,1.648,26.489
0.343,0.894,-0.295,-1.038,2.441,22.766
0.190,0.851,-0.324,-3.723,4.517,23.437
0.248,0.901,-0.317,-3.601,5.066,24.048
0.233,0.871,-0.301,-4.333,4.761,23.987
0.183,0.865,-0.312,-5.310,6.775,24.536
0.259,0.890,-0.328,-4.944,11.719,23.743
0.133,0.870,-0.312,-6.470,17.273,25.269
0.100,0.933,-0.325,-6.775,22.095,27.344
0.315,0.922,-0.336,-4.944,22.400,26.489
0.372,0.874,-0.324,-6.287,23.376,27.283
0.288,0.902,-0.381,-7.874,21.851,31.799
0.264,0.902,-0.402,-7.080,18.494,33.752
0.192,0.912,-0.372,-5.676,16.479,36.987
0.156,0.913,-0.413,-3.662,15.869,39.429
0.272,0.874,-0.401,-2.197,13.184,36.682
0.177,0.912,-0.389,-2.380,12.756,37.476
0.157,0.937,-0.381,-0.305,14.404,37.231
0.156,0.913,-0.393,0.610,14.099,35.767
0.174,0.908,-0.389,0.183,10.498,34.851
0.116,0.865,-0.392,-0.183,9.521,32.959
0.078,0.887,-0.349,0.122,9.521,29.419
0.028,0.927,-0.325,0.610,8.606,26.001
0.120,0.930,-0.313,2.075,8.789,21.179
0.038,0.943,-0.331,1.587,8.972,18.372
0.067,0.929,-0.337,2.747,8.728,14.893
0.041,0.944,-0.329,3.174,7.690,13.489
0.113,0.910,-0.326,3.357,7.812,11.230
0.012,0.929,-0.345,2.930,6.287,11.169
0.217,0.891,-0.326,3.845,5.493,7.690
0.096,0.902,-0.370,2.258,4.272,9.033
0.183,0.877,-0.356,2.686,4.822,7.080
0.020,0.947,-0.372,1.953,4.272,8.972
0.109,0.907,-0.356,2.747,4.028,6.836
0.017,0.921,-0.384,2.258,3.479,8.118
0.164,0.905,-0.358,3.113,4.333,5.371
0.098,0.898,-0.371,2.197,3.601,5.859
0.097,0.891,-0.346,2.197,2.747,4.822
0.024,0.912,-0.352,1.709,2.441,5.615
0.126,0.906,-0.325,1.465,3.662,4.883
-0.037,0.939,-0.337,0.000,2.319,8.423
0.096,0.945,-0.324,1.770,2.197,6.714
0.152,0.897,-0.362,0.488,1.587,6.531
0.086,0.914,-0.367,0.488,2.319,6.165
0.175,0.903,-0.377,1.038,2.014,3.235
-0.054,0.910,-0.378,-0.427,2.258,5.310
-0.028,0.941,-0.353,0.732,5.188,4.395
-0.076,0.934,-0.360,0.427,8.362,5.798
0.099,0.902,-0.349,1.160,11.719,4.089
0.243,0.908,-0.367,1.892,12.756,4.211
0.100,0.883,-0.377,0.122,11.292,8.423
0.095,0.996,-0.363,2.686,10.864,10.132
-0.008,0.906,-0.411,2.319,8.789,14.526
0.188,0.921,-0.363,4.211,8.972,14.893
0.103,0.887,-0.382,3.052,8.423,16.602
0.166,0.878,-0.334,3.723,8.423,16.846
-0.058,0.930,-0.358,2.869,8.606,20.996
0.082,0.918,-0.323,3.906,11.414,18.738
0.146,0.907,-0.333,2.808,10.742,20.752
-0.053,0.944,-0.363,2.502,9.460,23.254
0.144,0.920,-0.362,3.906,11.169,20.325
-0.011,0.912,-0.394,2.380,11.169,23.254
0.018,0.952,-0.387,5.188,12.695,21.118
0.097,0.894,-0.398,4.700,15.747,20.447
-0.069,0.994,-0.395,6.348,18.250,20.996
0.072,0.920,-0.365,6.836,19.470,20.752
0.055,0.964,-0.359,7.019,20.508,23.804
0.019,0.921,-0.386,7.324,20.630,24.658
0.176,0.880,-0.324,7.751,20.508,26.428
-0.022,0.955,-0.354,7.568,18.799,31.311
0.042,0.950,-0.327,8.240,16.785,31.738
0.203,0.921,-0.351,8.301,16.602,32.654
0.012,0.988,-0.386,7.690,15.259,34.180
-0.013,0.949,-0.363,8.423,15.320,34.180
-0.016,0.956,-0.385,9.338,17.212,36.438
-0.110,1.015,-0.386,10.498,19.653,37.537
0.045,0.918,-0.394,10.559,21.729,37.903
0.031,0.948,-0.389,11.230,23.804,40.771
-0.060,0.962,-0.385,10.559,25.513,42.542
-0.015,0.967,-0.362,10.498,28.259,43.640
-0.033,0.961,-0.377,10.864,32.715,44.861
-0.061,1.024,-0.324,12.024,34.790,46.143
-0.021,1.066,-0.318,13.611,35.889,47.913
0.130,1.045,-0.376,14.282,34.241,49.927
0.021,1.049,-0.397,12.939,31.494,54.382
0.028,1.066,-0.369,12.329,30.884,55.481
0.022,1.117,-0.349,13.000,30.151,59.021
0.022,1.096,-0.364,12.024,30.518,62.439
0.078,1.193,-0.334,14.099,29.053,65.063
0.099,1.138,-0.386,12.573,29.724,68.054
0.109,1.237,-0.338,14.099,29.968,70.618
0.007,1.246,-0.337,14.099,29.541,73.975
0.056,1.263,-0.316,15.503,30.090,77.637
0.002,1.288,-0.322,14.771,29.480,81.482
0.112,1.216,-0.304,14.221,31.006,83.008
0.071,1.220,-0.308,11.597,31.677,87.280
-0.008,1.176,-0.312,10.559,32.593,89.783
-0.026,1.191,-0.307,12.085,33.630,91.797
-0.040,1.183,-0.326,12.268,37.170,92.407
-0.011,1.215,-0.350,13.367,40.649,94.238
0.087,1.136,-0.379,13.367,42.969,94.543
0.059,1.092,-0.414,10.620,45.288,96.558
0.048,1.059,-0.401,9.155,47.058,96.191
-0.074,1.005,-0.395,4.883,49.316,97.351
-0.166,1.047,-0.391,4.333,49.438,99.304
-0.213,1.091,-0.389,3.784,47.363,98.755
-0.272,1.148,-0.347,6.042,47.729,96.558
-0.279,1.102,-0.348,7.812,49.500,92.773
-0.309,1.059,-0.395,7.080,49.255,89.722
-0.390,1.058,-0.441,6.409,49.500,86.975
-0.355,1.028,-0.443,7.935,51.025,83.008
-0.282,0.967,-0.427,9.216,50.903,79.224
-0.186,0.869,-0.409,10.437,50.537,74.524
-0.083,0.765,-0.394,10.803,47.791,70.251
-0.055,0.653,-0.365,10.803,42.358,65.613
-0.149,0.590,-0.357,9.766,36.743,59.937
-0.319,0.489,-0.340,8.545,32.898,53.467
-0.405,0.455,-0.308,7.507,28.259,45.349
-0.274,0.496,-0.264,8.484,23.010,34.424
-0.172,0.519,-0.228,10.376,19.226,22.156
-0.080,0.556,-0.214,12.573,16.907,11.414
-0.045,0.581,-0.160,15.137,13.000,4.639
-0.045,0.535,-0.127,18.005,7.690,-0.488
0.018,0.439,-0.112,20.691,3.052,-8.057
0.085,0.346,-0.109,22.278,-1.587,-18.250
0.145,0.306,-0.120,21.423,-6.470,-29.358
0.166,0.347,-0.113,20.020,-12.085,-39.246

0.124,0.903,-0.380,-0.732,9.644,8.972
0.316,0.885,-0.349,0.549,10.986,7.507
0.176,0.849,-0.392,-0.977,10.925,10.193
0.225,0.877,-0.401,-0.305,11.169,10.376
0.188,0.885,-0.406,0.244,13.550,10.742
0.091,0.868,-0.387,-0.061,13.489,13.794
0.117,0.916,-0.408,0.916,14.587,14.099
0.211,0.882,-0.375,1.526,16.479,12.939
0.199,0.889,-0.350,1.587,17.517,14.526
0.140,0.873,-0.385,1.099,17.456,16.235
0.142,0.908,-0.370,1.343,19.409,16.846
0.167,0.918,-0.362,1.770,18.799,17.273
0.156,0.877,-0.370,1.770,18.433,18.372
0.141,0.896,-0.360,1.648,18.799,19.287
0.104,0.895,-0.389,0.854,15.137,20.752
0.198,0.908,-0.373,1.343,14.771,20.142
0.083,0.883,-0.405,0.977,15.442,20.569
0.108,0.929,-0.371,1.709,15.930,18.921
0.049,0.919,-0.375,2.869,16.418,18.494
0.097,0.920,-0.347,2.441,18.311,18.127
0.060,0.908,-0.362,2.014,14.954,18.127
0.217,0.898,-0.358,2.136,12.512,16.541
0.085,0.888,-0.408,-0.488,12.512,16.174
0.161,0.910,-0.378,0.732,12.451,14.099
0.021,0.966,-0.378,1.831,11.414,15.869
0.103,0.912,-0.375,2.808,13.245,15.747
0.057,0.944,-0.395,3.235,14.832,16.296
0.180,0.887,-0.387,4.150,13.000,15.625
0.152,0.896,-0.391,3.662,11.963,17.761
0.058,0.877,-0.398,3.418,12.329,18.372
0.106,0.920,-0.387,4.211,10.315,19.714
0.035,0.899,-0.401,3.967,8.667,22.278
0.012,0.955,-0.375,5.676,10.254,23.682
0.151,0.870,-0.408,6.042,10.376,21.729
0.109,0.888,-0.416,4.211,9.155,22.888
0.203,0.898,-0.381,4.089,11.414,20.264
-0.022,0.896,-0.399,2.686,11.108,22.461
-0.000,0.971,-0.349,4.333,9.216,24.170
-0.012,0.952,-0.378,4.700,10.071,26.978
0.136,0.886,-0.397,6.104,12.451,26.001
0.251,0.895,-0.422,5.127,11.963,25.818
-0.073,0.905,-0.449,4.517,10.681,29.724
0.077,0.932,-0.368,6.836,12.878,30.396
-0.071,0.965,-0.393,7.568,14.160,33.386
0.120,0.874,-0.381,7.263,15.137,32.715
0.105,0.954,-0.372,7.874,15.991,33.691
0.013,0.890,-0.412,5.737,15.808,35.889
0.013,1.016,-0.370,7.690,16.602,37.292
0.135,0.917,-0.404,8.423,16.235,37.537
-0.052,0.933,-0.429,8.423,15.930,42.236
0.032,0.981,-0.349,10.254,18.555,41.260
0.065,0.906,-0.404,8.057,18.555,43.213
-0.059,1.014,-0.391,12.085,18.494,45.166
0.163,0.902,-0.394,11.292,19.836,45.044
-0.121,1.012,-0.444,10.742,17.029,48.828
0.049,0.967,-0.375,12.634,19.470,48.157
-0.010,1.011,-0.385,13.977,19.653,50.964
-0.056,0.951,-0.409,13.245,19.287,51.331
0.104,0.975,-0.338,14.893,22.705,52.734
-0.069,0.993,-0.385,13.184,20.264,56.274
-0.028,1.009,-0.386,13.062,18.555,56.763
0.154,1.026,-0.423,13.489,18.921,57.739
-0.008,1.057,-0.446,9.827,17.578,59.998
-0.057,1.102,-0.379,10.376,18.250,60.425
-0.002,1.100,-0.363,10.864,19.775,63.293
-0.101,1.155,-0.370,10.986,18.860,66.040
0.054,1.118,-0.359,11.597,18.494,67.200
0.005,1.173,-0.375,10.803,19.531,70.313
-0.013,1.178,-0.344,10.620,19.409,71.777
-0.057,1.172,-0.352,10.498,21.667,74.097
0.019,1.144,-0.333,11.230,24.414,75.195
0.000,1.141,-0.338,9.155,25.085,78.369
-0.069,1.131,-0.345,8.545,26.733,81.299
-0.013,1.132,-0.343,8.118,28.870,82.825
-0.045,1.116,-0.385,6.226,32.410,83.679
-0.057,1.174,-0.399,7.935,38.696,85.632
-0.004,1.158,-0.434,9.033,42.419,87.646
0.051,1.168,-0.457,9.644,46.753,90.149
0.001,1.167,-0.490,8.240,51.270,94.482
0.096,1.143,-0.457,7.385,57.190,96.863
0.064,1.069,-0.444,2.686,60.547,99.609
0.013,1.065,-0.420,-3.113,60.669,100.647
-0.166,1.146,-0.359,-8.362,60.608,100.708
-0.237,1.218,-0.320,-8.728,61.951,98.572
-0.299,1.225,-0.303,-6.775,62.317,97.595
-0.242,1.178,-0.289,-4.944,62.500,95.398
-0.269,1.129,-0.324,-4.089,61.279,94.238
-0.261,1.086,-0.362,-3.601,59.814,91.919
-0.199,1.067,-0.379,-2.258,54.138,88.745
-0.238,1.043,-0.333,0.732,53.284,85.693
-0.211,0.946,-0.364,2.686,54.016,81.665
-0.110,0.835,-0.364,3.906,50.476,75.989
-0.084,0.726,-0.357,4.578,44.678,69.763
-0.129,0.617,-0.334,5.310,40.222,62.561
-0.294,0.535,-0.266,6.165,36.804,56.030
-0.403,0.473,-0.277,6.592,32.166,49.316
-0.243,0.494,-0.263,8.667,27.405,37.048
-0.136,0.504,-0.267,11.108,23.682,25.146
-0.068,0.530,-0.241,13.977,21.118,15.442
-0.017,0.544,-0.206,17.090,18.188,6.531
-0.055,0.529,-0.154,19.775,15.564,-0.061
-0.038,0.453,-0.138,22.888,13.123,-7.263
0.022,0.354,-0.137,23.499,9.521,-17.029
0.068,0.304,-0.137,23.926,4.578,-28.503
0.102,0.318,-0.138,23.987,-1.099,-39.551
0.074,0.375,-0.136,21.667,-8.789,-47.546
0.013,0.414,-0.154,18.127,-19.531,-55.176
0.001,0.443,-0.178,16.235,-29.541,-63.354
-0.026,0.464,-0.191,13.367,-39.185,-73.242
-0.042,0.500,-0.198,11.169,-46.875,-82.825
-0.053,0.524,-0.193,9.460,-52.124,-91.248
-0.033,0.549,-0.194,7.935,-56.641,-99.426
-0.024,0.575,-0.205,6.592,-60.181,-107.178
-0.014,0.604,-0.227,5.249,-63.293,-113.953
-0.017,0.640,-0.227,4.578,-64.697,-121.704
-0.020,0.672,-0.246,3.906,-64.880,-129.272
-0.026,0.728,-0.254,2.625,-64.941,-136.353
-0.039,0.775,-0.265,1.465,-65.918,-141.907
-0.049,0.825,-0.271,0.183,-67.139,-147.644
-0.090,0.846,-0.283,-6.104,-70.984,-154.846
-0.104,1.031,-0.333,-5.798,-68.176,-153.870
-0.211,0.860,-0.388,-7.446,-49.622,-171.692
-0.150,1.011,-0.435,1.953,-46.631,-171.509
-0.111,1.047,-0.457,9.155,-41.748,-168.945
-0.082,1.051,-0.445,8.789,-40.344,-170.898
-0.126,1.072,-0.437,6.714,-36.743,-175.598
-0.168,1.120,-0.431,5.127,-31.250,-177.307
-0.155,1.136,-0.425,-0.916,-32.959,-181.580
-0.137,1.209,-0.434,-2.747,-30.640,-180.542
-0.086,1.259,-0.448,-8.057,-32.654,-183.167
-0.048,1.272,-0.436,-14.099,-35.522,-187.622
-0.061,1.291,-0.434,-18.860,-39.124,-187.866
-0.051,1.254,-0.432,-22.644,-44.800,-184.692
-0.003,1.289,-0.446,-26.062,-54.993,-180.176
-0.106,1.318,-0.467,-27.527,-61.279,-175.110
-0.186,1.367,-0.468,-25.879,-61.768,-169.922
-0.214,1.403,-0.470,-23.132,-58.105,-164.978
-0.236,1.423,-0.468,-19.348,-51.208,-159.485
-0.265,1.406,-0.467,-15.564,-40.527,-154.297
-0.273,1.360,-0.461,-13.184,-30.273,-149.353
-0.275,1.323,-0.470,-9.705,-18.799,-144.531
-0.270,1.295,-0.436,-7.812,-9.583,-137.878
-0.254,1.238,-0.423,-6.348,-3.296,-130.615
-0.244,1.190,-0.401,-6.226,1.282,-123.230
-0.240,1.138,-0.381,-7.141,4.395,-114.624
-0.214,1.100,-0.360,-8.850,4.761,-105.774
-0.192,1.083,-0.332,-11.353,3.052,-97.961
-0.183,1.073,-0.300,-13.184,2.258,-89.844
-0.194,1.070,-0.275,-13.184,3.723,-80.566
-0.191,1.062,-0.256,-12.329,6.470,-71.228
-0.187,1.049,-0.238,-11.902,7.996,-61.707
-0.190,1.045,-0.227,-10.925,9.216,-51.025
-0.195,1.021,-0.202,-10.254,8.972,-39.490
-0.177,1.004,-0.203,-9.521,7.568,-27.283
-0.157,0.990,-0.187,-9.094,3.540,-15.381
-0.138,0.993,-0.167,-7.996,-0.122,-3.540
-0.120,0.979,-0.149,-6.714,-3.967,7.874
-0.082,1.000,-0.177,-6.104,-9.644,18.738
-0.028,0.999,-0.188,-6.470,-18.127,28.259
-0.068,0.993,-0.188,-6.287,-25.146,38.818
-0.132,0.996,-0.165,-5.493,-29.602,49.377
-0.138,0.997,-0.193,-5.188,-32.532,58.533
-0.130,1.013,-0.220,-4.578,-34.363,66.223
-0.080,0.980,-0.215,-2.869,-31.555,70.862
0.182,0.948,-0.266,-1.709,-26.978,67.993
0.783,0.858,-0.391,-1.221,-25.146,53.589
1.295,0.725,-0.338,-0.366,-23.682,33.997
1.309,0.505,-0.429,-6.348,-19.592,22.217
1.013,0.602,-0.340,-9.094,-12.573,18.555
0.486,0.829,-0.182,-8.484,-9.888,21.362
0.140,1.027,-0.163,-3.296,-11.108,29.236
0.039,1.135,-0.165,2.441,-11.414,36.194
0.182,1.034,-0.309,3.357,-10.254,39.246
0.398,0.980,-0.316,1.831,-8.606,39.124
0.482,0.941,-0.298,-1.831,-6.165,40.405
0.334,1.051,-0.284,-6.287,-4.700,45.410
0.336,1.112,-0.367,-8.118,-10.437,50.781
0.434,1.096,-0.389,-8.545,-15.320,51.636
0.334,1.058,-0.291,-7.629,-14.343,54.077
0.195,1.019,-0.310,-6.042,-11.597,59.509
0.321,0.940,-0.397,-4.639,-9.155,57.373
0.274,0.908,-0.408,-4.211,-3.784,53.711
0.111,0.943,-0.444,-4.211,1.709,53.223
0.119,0.980,-0.397,-1.465,5.249,51.270
0.095,0.921,-0.386,-1.221,6.165,49.194
0.196,0.873,-0.422,-2.563,4.028,45.593
0.234,0.887,-0.347,-1.526,2.563,41.504
0.198,0.904,-0.282,-0.305,3.479,38.025
0.143,0.892,-0.280,-1.465,4.211,33.875
0.160,0.920,-0.246,-2.441,7.019,29.175
0.171,0.932,-0.202,-3.296,9.399,26.245
0.205,0.926,-0.201,-5.798,10.071,24.353
0.273,0.927,-0.272,-7.080,8.667,23.254
0.343,0.897,-0.286,-8.850,5.554,22.095
0.289,0.881,-0.333,-10.925,3.052,22.644
0.254,0.875,-0.317,-10.986,0.427,21.851
0.219,0.873,-0.348,-10.986,0.732,20.020
0.143,0.868,-0.351,-11.108,3.662,20.142
0.285,0.886,-0.379,-9.583,7.080,18.433
0.242,0.835,-0.393,-9.766,9.766,16.907
0.295,0.853,-0.379,-9.277,13.733,15.991
0.149,0.852,-0.396,-10.620,15.076,17.029
0.253,0.901,-0.360,-9.949,14.648,16.174
0.185,0.917,-0.394,-9.766,12.634,15.808
0.286,0.938,-0.373,-8.301,13.062,14.282
0.253,0.939,-0.372,-8.057,14.587,13.489
0.255,0.911,-0.360,-7.263,14.099,12.817
0.164,0.907,-0.397,-7.019,12.756,13.184
0.222,0.915,-0.384,-5.493,12.634,11.292
0.096,0.905,-0.397,-5.676,12.268,11.353
0.255,0.891,-0.428,-4.211,11.047,9.399
0.270,0.873,-0.417,-3.113,10.681,8.850
0.235,0.884,-0.413,-1.770,11.597,8.240
0.323,0.900,-0.386,0.366,11.597,6.042
0.105,0.883,-0.380,-0.061,10.254,9.277
0.177,0.929,-0.382,1.587,10.925,9.155
0.072,0.886,-0.378,1.343,10.986,9.949
0.233,0.899,-0.352,2.075,11.230,9.338
0.283,0.845,-0.381,1.221,10.925,7.568
0.358,0.836,-0.333,0.061,9.949,8.057
0.073,0.915,-0.352,-0.549,7.507,12.512
0.246,0.879,-0.369,0.244,7.202,10.315
0.058,0.926,-0.383,-0.793,7.019,13.916
0.262,0.869,-0.399,1.526,7.385,11.108
0.153,0.867,-0.394,0.122,6.958,13.062
0.246,0.858,-0.391,1.526,7.629,11.353
0.031,0.880,-0.405,0.122,7.629,13.306
0.147,0.926,-0.377,1.892,10.071,11.169
0.193,0.893,-0.363,1.587,9.705,11.292
0.108,0.883,-0.357,0.854,10.681,14.526
0.145,0.926,-0.366,1.892,11.292,14.038
0.287,0.883,-0.348,1.038,8.911,13.794
0.098,0.889,-0.352,-0.854,5.920,18.005
0.193,0.896,-0.379,-0.732,6.226,15.076
0.223,0.878,-0.371,-1.465,5.432,14.526
0.019,0.921,-0.376,-2.563,5.493,17.212
0.165,0.898,-0.390,-1.099,6.958,13.489
0.082,0.914,-0.394,-1.831,7.324,14.282

0.048,1.056,-0.384,18.494,25.757,52.673
-0.014,1.077,-0.395,19.165,26.733,55.176
-0.073,1.076,-0.323,19.226,28.748,55.969
0.128,1.058,-0.261,19.104,28.198,55.298
-0.089,1.058,-0.339,16.052,26.123,59.387
-0.104,1.151,-0.289,18.555,24.658,61.829
0.146,1.128,-0.323,19.836,23.743,61.707
0.053,1.122,-0.400,18.372,20.935,64.941
0.013,1.120,-0.388,19.470,20.264,66.711
0.017,1.113,-0.374,17.944,21.667,69.031
-0.131,1.170,-0.348,19.531,24.353,72.632
0.035,1.146,-0.277,20.508,26.917,73.792
0.025,1.171,-0.295,20.691,28.931,77.148
0.046,1.176,-0.288,21.118,31.860,81.360
0.061,1.180,-0.313,20.935,32.776,86.243
0.138,1.202,-0.282,20.386,31.982,91.003
0.151,1.236,-0.276,20.630,31.799,95.825
0.132,1.196,-0.322,17.761,28.687,101.318
0.108,1.194,-0.341,15.320,28.259,104.492
0.128,1.147,-0.362,10.315,29.297,106.506
0.041,1.169,-0.383,6.592,29.785,108.948
-0.008,1.145,-0.376,3.540,29.724,110.168
-0.074,1.171,-0.388,1.343,27.649,111.633
-0.124,1.173,-0.407,-0.549,24.414,111.023
-0.172,1.200,-0.380,0.183,22.217,109.314
-0.206,1.160,-0.373,1.160,19.897,108.032
-0.303,1.168,-0.365,2.930,18.921,107.300
-0.353,1.112,-0.427,4.578,20.325,104.858
-0.270,1.071,-0.459,5.676,20.630,100.037
-0.200,0.982,-0.462,6.409,19.714,94.238
-0.197,0.886,-0.440,7.446,20.996,89.111
-0.202,0.781,-0.415,9.033,23.987,81.421
-0.213,0.677,-0.390,10.742,27.283,72.571
-0.267,0.583,-0.347,12.512,29.846,63.599
-0.408,0.461,-0.340,13.000,30.029,56.641
-0.455,0.391,-0.338,13.306,29.480,48.706
-0.244,0.408,-0.291,15.442,26.733,35.461
-0.109,0.423,-0.295,16.602,22.827,22.156
-0.031,0.443,-0.285,18.555,20.203,11.108
0.053,0.450,-0.247,20.752,15.808,0.427
0.034,0.423,-0.226,22.949,9.583,-7.568
-0.018,0.379,-0.211,24.231,5.676,-15.076
-0.004,0.317,-0.207,25.879,3.052,-25.818
0.039,0.263,-0.190,24.292,0.916,-38.086
0.076,0.264,-0.173,22.888,-2.869,-49.866
0.048,0.304,-0.163,21.790,-8.423,-59.814
-0.032,0.355,-0.162,19.226,-12.756,-69.397
-0.055,0.382,-0.177,17.395,-17.151,-79.102
-0.080,0.421,-0.168,14.648,-20.935,-89.355
-0.092,0.442,-0.183,11.475,-23.315,-99.915
-0.063,0.480,-0.193,8.606,-26.428,-108.826
-0.030,0.506,-0.204,5.310,-30.701,-116.150
0.006,0.537,-0.217,1.587,-36.377,-121.948
0.036,0.581,-0.226,-2.075,-42.847,-127.930
0.037,0.643,-0.235,-6.165,-48.157,-134.155
0.025,0.735,-0.237,-8.911,-53.223,-140.259
-0.003,0.822,-0.227,-10.559,-55.786,-145.081
0.004,0.887,-0.244,-11.047,-60.303,-148.621
-0.037,0.938,-0.253,-12.207,-64.636,-150.208
-0.115,0.964,-0.291,-15.198,-65.308,-152.588
-0.128,0.970,-0.344,-22.461,-70.679,-160.889
-0.160,1.305,-0.371,-20.020,-66.589,-160.645
-0.228,1.063,-0.413,-23.621,-53.040,-178.467
-0.125,1.179,-0.440,-9.705,-53.101,-165.649
-0.097,1.192,-0.453,-2.930,-53.345,-157.898
-0.119,1.192,-0.441,-1.160,-52.979,-153.198
-0.158,1.173,-0.436,-8.362,-56.030,-159.424
-0.189,1.222,-0.443,-8.728,-53.284,-156.189
-0.207,1.240,-0.465,-12.695,-51.392,-158.081
-0.195,1.268,-0.452,-17.639,-48.462,-164.307
-0.177,1.257,-0.436,-21.362,-42.969,-168.762
-0.163,1.264,-0.441,-23.560,-35.889,-169.678
-0.124,1.272,-0.440,-24.170,-28.442,-169.617
-0.089,1.294,-0.442,-23.560,-22.705,-168.274
-0.018,1.292,-0.428,-22.278,-18.921,-165.100
-0.047,1.327,-0.410,-19.470,-15.259,-160.645
-0.074,1.341,-0.382,-17.944,-11.597,-154.297
-0.115,1.323,-0.340,-17.151,-6.409,-148.743
-0.132,1.307,-0.309,-17.029,-2.014,-143.982
-0.142,1.289,-0.292,-14.893,0.305,-138.733
-0.140,1.258,-0.279,-13.611,2.991,-132.080
-0.135,1.213,-0.301,-13.123,2.197,-124.146
-0.104,1.186,-0.275,-13.306,-1.587,-115.662
-0.098,1.150,-0.261,-13.855,-7.812,-106.567
-0.094,1.133,-0.255,-14.038,-14.221,-97.961
-0.127,1.104,-0.261,-14.404,-18.799,-88.989
-0.139,1.073,-0.268,-15.259,-23.315,-79.346
-0.157,1.050,-0.268,-15.991,-26.733,-69.885
-0.179,1.049,-0.275,-15.869,-27.954,-59.937
-0.213,1.028,-0.270,-15.625,-27.954,-49.866
-0.239,1.031,-0.269,-15.198,-25.391,-40.710
-0.255,1.002,-0.256,-14.404,-22.644,-31.738
-0.250,0.993,-0.250,-12.756,-19.165,-22.217
-0.246,0.998,-0.254,-10.132,-15.320,-12.390
-0.238,1.006,-0.259,-7.751,-10.742,-3.662
-0.217,0.998,-0.278,-7.141,-9.644,5.737
-0.212,0.975,-0.274,-7.202,-8.972,14.404
-0.214,0.939,-0.296,-7.568,-8.118,22.339
-0.183,0.981,-0.307,-7.141,-7.446,29.785
-0.177,0.993,-0.308,-6.836,-5.737,37.659
-0.184,0.996,-0.271,-4.456,-4.578,45.654
-0.144,0.988,-0.264,-3.540,-5.310,53.955
-0.123,1.007,-0.220,-3.418,-8.362,60.669
-0.080,1.004,-0.179,-2.258,-8.972,65.369
0.117,1.004,-0.167,-0.854,-8.545,65.125
0.534,0.924,-0.266,0.305,-9.033,55.725
1.068,0.900,-0.107,5.371,-10.071,40.222
1.286,0.689,-0.111,3.235,-14.404,30.701
1.117,0.646,-0.176,-4.700,-19.592,28.625
0.831,0.772,-0.172,-9.705,-26.917,28.320
0.503,0.934,-0.158,-11.658,-36.987,32.104
0.191,1.074,-0.197,-12.268,-46.143,39.795
0.127,1.214,-0.211,-9.766,-48.523,45.227
0.020,1.296,-0.216,-6.409,-42.114,46.631
0.111,1.216,-0.399,-6.348,-33.569,44.800
0.214,1.128,-0.413,-7.568,-21.851,42.419
0.132,1.068,-0.493,-9.766,-11.475,44.128
0.206,1.108,-0.406,-5.310,-4.944,43.701
0.145,1.070,-0.363,-2.563,-2.502,44.495
0.207,1.024,-0.378,-2.319,-5.005,44.800
0.199,0.970,-0.409,-2.258,-7.385,42.542
0.164,0.921,-0.421,-0.061,-5.554,37.537
0.272,0.838,-0.401,2.075,-2.136,29.846
0.141,0.755,-0.429,0.305,0.366,27.039
0.186,0.788,-0.431,1.282,0.061,24.414
0.368,0.787,-0.352,2.014,-0.549,19.775
0.324,0.816,-0.303,0.366,1.465,19.836
0.333,0.858,-0.289,-0.305,0.916,19.592
0.333,0.852,-0.300,-2.136,0.183,18.982
0.205,0.850,-0.355,-3.601,0.427,20.569
0.365,0.855,-0.309,-2.747,-0.732,18.677
0.355,0.810,-0.314,-4.761,-1.709,18.494
0.316,0.851,-0.263,-7.141,-2.930,20.386
0.252,0.904,-0.257,-7.263,-3.479,21.545
0.309,0.917,-0.276,-8.118,-3.479,21.301
0.297,0.904,-0.288,-9.338,-3.906,22.156
0.261,0.902,-0.282,-10.376,-3.845,23.254
0.217,0.884,-0.320,-11.536,-4.700,23.743
0.300,0.881,-0.333,-11.230,-6.836,22.461
0.273,0.878,-0.381,-11.597,-7.935,22.705
0.290,0.895,-0.370,-11.047,-8.423,22.766
0.214,0.922,-0.384,-10.315,-7.812,23.865
0.240,0.943,-0.370,-7.202,-6.653,24.170
0.187,0.921,-0.385,-5.981,-6.226,24.536
0.294,0.916,-0.358,-3.723,-4.761,22.339
0.146,0.907,-0.396,-3.662,-1.282,21.667
0.207,0.929,-0.349,-1.404,1.160,19.836
0.099,0.924,-0.391,-2.075,4.456,19.897
0.177,0.940,-0.348,-0.244,7.751,18.250
0.115,0.918,-0.367,-0.793,10.010,17.700
0.274,0.937,-0.314,0.854,9.277,15.991
0.186,0.911,-0.311,0.793,9.949,14.954
0.180,0.818,-0.399,-1.831,11.169,12.085
0.069,0.901,-0.361,-1.953,12.207,12.329
0.196,0.928,-0.332,-0.305,12.146,9.705
0.042,0.894,-0.348,-2.136,12.268,10.803
0.128,0.935,-0.361,-0.916,12.268,9.644
0.241,0.883,-0.336,-0.183,12.512,6.714
0.177,0.881,-0.328,-1.221,13.855,6.897
0.219,0.892,-0.361,-1.526,16.235,5.249
0.184,0.883,-0.360,-3.235,18.250,5.859
0.021,0.912,-0.415,-5.432,21.423,10.010
0.131,0.936,-0.354,-3.906,21.606,11.169
0.207,0.916,-0.357,-2.808,16.663,12.878
0.308,0.836,-0.378,-2.563,11.719,13.184
0.378,0.856,-0.343,-2.563,10.986,12.512
0.048,0.859,-0.396,-4.150,9.827,16.296
0.127,0.959,-0.347,-1.465,10.681,16.602
0.049,0.899,-0.405,-2.136,11.353,18.738
0.210,0.935,-0.313,0.244,13.672,17.639
0.189,0.875,-0.388,-0.549,11.536,18.311
0.245,0.892,-0.355,-0.122,10.864,18.188
0.057,0.875,-0.422,-1.648,9.277,20.752
0.149,0.930,-0.365,0.305,9.766,19.714
0.207,0.882,-0.388,0.244,8.545,19.592
0.035,0.882,-0.389,-1.160,7.141,22.156
0.169,0.941,-0.381,1.282,8.057,19.958
0.161,0.881,-0.381,0.061,6.714,20.508
0.033,0.928,-0.390,-0.427,6.165,22.400
0.210,0.883,-0.387,0.793,7.996,18.494
0.041,0.868,-0.368,-1.892,7.080,19.897
0.074,0.946,-0.340,-0.427,7.996,17.883
0.043,0.902,-0.370,-0.854,8.850,17.334
0.061,0.942,-0.345,-0.671,10.132,16.541
0.059,0.929,-0.399,-0.061,11.169,16.113
0.171,0.875,-0.369,-0.549,12.756,14.893
-0.017,0.917,-0.405,-1.587,14.099,16.541
0.012,0.911,-0.426,-0.244,15.991,14.954
0.236,0.896,-0.337,0.000,17.212,13.611
0.135,0.907,-0.407,0.916,15.930,16.296
0.088,0.891,-0.398,1.526,15.076,16.907
0.137,0.938,-0.376,2.380,12.878,18.799
-0.020,0.937,-0.422,3.479,11.658,23.254
0.167,0.895,-0.391,5.432,12.634,22.827
0.126,0.894,-0.390,4.639,11.353,25.085
0.049,0.893,-0.376,5.371,11.169,26.917
0.029,0.908,-0.370,6.592,11.414,28.992
0.153,0.887,-0.350,6.897,9.827,30.334
0.106,0.896,-0.384,5.493,7.385,33.508
0.085,0.916,-0.381,4.761,6.470,35.034
0.057,0.971,-0.386,5.249,6.470,35.767
0.113,0.920,-0.407,5.615,4.395,36.011
0.034,0.959,-0.391,6.897,2.991,36.743
-0.022,0.923,-0.409,6.775,3.723,35.828
-0.020,0.940,-0.377,7.019,6.531,35.034
-0.094,0.929,-0.404,7.080,7.568,35.583
0.094,0.925,-0.362,8.911,12.573,33.691
-0.013,0.953,-0.431,8.545,16.846,35.217
0.048,0.914,-0.431,8.667,19.409,35.767
0.009,1.017,-0.389,10.864,21.057,37.842
-0.035,0.968,-0.423,10.925,23.132,40.771
0.070,0.998,-0.376,13.062,24.414,41.565
0.058,0.927,-0.431,11.658,25.879,43.274
-0.001,0.960,-0.390,10.986,28.748,44.250
-0.117,0.993,-0.355,10.498,29.907,46.570
-0.005,0.972,-0.324,12.329,30.823,48.401
-0.100,1.046,-0.353,13.611,29.297,52.368
0.142,0.980,-0.361,13.062,25.940,51.819
0.045,1.045,-0.441,12.451,22.705,54.749
0.114,1.061,-0.405,12.512,23.743,53.589
-0.100,1.069,-0.386,10.986,23.193,57.556
-0.118,1.121,-0.302,12.268,23.865,58.411
-0.054,1.123,-0.306,12.817,23.132,60.974
0.061,1.088,-0.344,13.184,21.301,60.974
0.155,1.080,-0.369,11.230,22.217,61.951
-0.187,1.161,-0.439,10.498,21.301,65.674
-0.037,1.129,-0.378,10.010,23.071,66.040
-0.075,1.233,-0.368,11.597,27.100,69.519
0.038,1.132,-0.346,13.855,30.518,70.190
0.138,1.124,-0.316,13.550,30.273,73.486
-0.045,1.101,-0.382,10.010,29.968,78.186
-0.028,1.171,-0.329,11.108,33.936,79.651
0.047,1.158,-0.332,11.169,35.156,81.421
-0.102,1.173,-0.390,10.498,37.109,85.266
0.038,1.213,-0.354,12.634,40.894,86.548
0.047,1.162,-0.425,13.184,42.725,89.417
0.040,1.210,-0.448,14.038,46.631,91.797
0.136,1.161,-0.464,12.024,50.720,93.323

-0.010,1.042,-0.159,-3.113,-23.499,44.617
0.058,1.089,-0.296,-2.686,-27.649,50.110
0.311,1.132,-0.322,-5.371,-27.588,49.561
0.426,1.115,-0.315,-8.240,-21.179,45.654
0.382,1.075,-0.249,-8.484,-15.442,43.396
0.293,1.012,-0.319,-9.033,-14.771,47.180
0.221,1.027,-0.335,-10.803,-17.090,49.866
0.209,1.081,-0.310,-11.719,-17.761,51.086
0.225,1.029,-0.358,-14.099,-18.555,51.392
0.220,0.977,-0.414,-15.808,-18.738,49.927
0.133,1.000,-0.395,-13.306,-13.184,48.584
-0.024,0.972,-0.436,-10.559,-8.545,48.218
0.091,0.924,-0.541,-9.399,-6.592,43.274
0.229,0.924,-0.439,-5.859,-3.723,36.438
0.298,0.899,-0.369,-3.479,-1.770,31.494
0.272,0.860,-0.289,-3.723,-1.160,28.259
0.059,0.901,-0.319,-5.249,0.977,29.175
0.034,0.960,-0.288,-3.845,3.723,27.893
0.228,0.958,-0.283,-1.709,9.216,23.010
0.440,0.880,-0.264,-1.404,12.085,18.005
0.349,0.808,-0.209,-6.531,10.010,18.494
0.235,0.875,-0.303,-10.193,6.042,21.362
0.171,0.882,-0.279,-10.803,2.136,20.630
0.272,0.920,-0.309,-10.437,1.221,18.616
0.291,0.860,-0.292,-10.864,2.380,16.663
0.340,0.869,-0.288,-11.353,4.822,15.747
0.102,0.868,-0.366,-13.245,7.385,17.517
0.230,0.922,-0.401,-9.949,9.338,14.893
0.302,0.874,-0.386,-8.362,10.376,11.902
0.100,0.859,-0.404,-10.010,13.184,14.099
0.323,0.934,-0.397,-7.568,14.771,11.841
0.224,0.901,-0.352,-7.874,18.677,12.085
0.160,0.925,-0.426,-7.935,20.081,14.771
0.378,0.911,-0.362,-5.066,22.034,10.986
0.182,0.878,-0.344,-6.836,23.560,12.756
0.235,0.927,-0.365,-5.493,21.667,13.916
0.238,0.877,-0.328,-4.761,22.339,13.245
0.293,0.875,-0.347,-5.920,19.775,14.832
0.224,0.868,-0.402,-6.470,17.029,15.442
0.359,0.884,-0.382,-5.859,14.954,13.306
0.141,0.875,-0.413,-7.935,12.146,15.198
0.140,0.917,-0.400,-5.493,10.742,15.503
0.294,0.913,-0.404,-3.784,11.597,12.024
0.241,0.847,-0.391,-3.418,11.475,12.329
0.202,0.875,-0.413,-2.136,12.329,12.695
0.196,0.875,-0.409,-0.916,13.489,11.841
0.203,0.872,-0.386,-1.343,13.062,13.062
0.071,0.900,-0.423,-1.587,12.451,14.709
0.239,0.902,-0.373,0.183,14.526,12.207
0.162,0.909,-0.371,0.549,15.320,13.367
0.147,0.894,-0.394,1.709,16.418,13.428
0.175,0.897,-0.404,1.648,16.724,13.245
0.146,0.891,-0.411,1.648,15.930,14.099
0.181,0.874,-0.403,2.136,17.029,14.160
0.173,0.896,-0.403,1.038,17.456,14.587
0.137,0.893,-0.395,2.014,17.456,15.259
0.146,0.917,-0.391,3.784,16.663,14.282
0.188,0.870,-0.383,3.052,14.404,13.428
0.131,0.895,-0.373,2.625,12.878,13.733
0.122,0.869,-0.369,2.075,11.658,12.329
0.110,0.901,-0.347,1.099,10.498,11.902
0.117,0.897,-0.366,0.488,10.742,10.925
0.083,0.955,-0.357,1.221,9.827,11.108
0.220,0.868,-0.385,0.671,7.568,9.949
0.179,0.929,-0.390,1.282,8.057,10.498
0.109,0.847,-0.415,-0.854,7.568,9.766
0.118,0.922,-0.392,-0.366,7.751,10.559
0.101,0.859,-0.404,0.000,7.446,11.292
0.140,0.927,-0.403,2.319,6.714,11.292
0.183,0.861,-0.411,1.770,6.714,10.986
0.158,0.906,-0.401,1.770,6.592,12.878
0.077,0.878,-0.422,1.648,6.226,13.977
0.147,0.917,-0.410,2.625,5.615,14.954
0.026,0.894,-0.406,2.380,6.653,17.761
0.058,0.945,-0.388,4.639,8.911,17.700
0.210,0.864,-0.395,3.357,10.376,17.151
0.118,0.917,-0.402,4.211,11.780,18.677
0.246,0.884,-0.398,4.700,12.939,16.724
0.010,0.918,-0.414,5.188,11.292,20.874
0.078,0.914,-0.399,5.676,11.414,22.339
0.010,0.938,-0.392,5.127,11.658,24.414
0.172,0.864,-0.395,5.249,12.573,22.095
0.269,0.887,-0.384,5.859,12.329,20.569
-0.078,0.893,-0.417,5.127,12.939,22.278
0.053,0.946,-0.362,6.042,12.817,22.095
-0.032,0.965,-0.390,6.226,12.939,24.536
0.166,0.864,-0.403,7.202,13.245,23.682
0.095,0.927,-0.417,7.629,14.038,24.536
0.051,0.848,-0.426,5.920,16.174,25.024
0.014,0.970,-0.389,7.385,18.921,27.161
0.214,0.893,-0.377,7.751,18.433,27.588
0.044,0.900,-0.427,7.935,16.663,31.067
0.057,0.966,-0.354,8.972,17.700,31.494
0.144,0.869,-0.387,6.348,16.968,32.471
-0.050,0.986,-0.364,7.446,17.639,33.630
0.166,0.893,-0.333,6.104,18.188,31.921
-0.056,0.947,-0.399,6.287,16.907,34.912
0.086,0.894,-0.331,5.798,16.357,34.119
-0.001,0.952,-0.371,6.897,16.846,36.072
-0.053,0.931,-0.391,7.996,18.188,35.706
0.135,0.927,-0.391,8.179,19.409,35.889
-0.069,0.954,-0.446,8.789,20.081,39.856
-0.067,0.985,-0.401,10.010,23.376,39.368
0.219,0.956,-0.402,10.681,22.705,40.405
0.021,0.984,-0.432,11.841,24.109,42.297
-0.045,1.002,-0.376,11.230,27.466,42.297
0.001,1.010,-0.343,11.536,27.344,44.312
-0.155,1.038,-0.327,14.282,29.297,46.936
0.009,0.954,-0.339,13.794,29.846,46.814
0.048,1.019,-0.385,15.015,28.625,48.096
-0.078,1.025,-0.434,15.259,30.334,48.767
-0.127,1.094,-0.448,16.541,32.288,49.622
-0.017,1.055,-0.403,18.250,37.048,49.683
-0.039,1.038,-0.371,19.409,40.771,51.270
-0.059,1.029,-0.338,18.982,41.138,53.467
0.055,1.084,-0.292,20.386,43.213,54.749
0.017,1.099,-0.362,19.653,40.344,57.678
0.008,1.142,-0.366,20.264,39.124,60.364
-0.024,1.197,-0.371,20.630,37.170,62.439
-0.026,1.189,-0.365,21.973,38.513,63.721
-0.018,1.278,-0.333,26.306,40.955,66.284
0.088,1.136,-0.360,25.696,43.457,67.017
0.114,1.186,-0.335,26.489,43.457,71.777
0.043,1.206,-0.347,25.391,41.199,77.637
0.148,1.239,-0.289,26.184,40.283,82.397
0.111,1.317,-0.308,26.184,39.612,88.196
0.214,1.256,-0.284,26.611,38.208,92.651
0.210,1.253,-0.312,25.024,36.316,98.877
0.138,1.168,-0.396,21.423,35.156,104.370
0.225,1.140,-0.377,16.846,35.217,109.497
0.137,1.107,-0.404,10.620,33.081,113.892
0.021,1.165,-0.344,7.202,30.762,115.784
-0.018,1.175,-0.321,5.737,31.311,115.173
-0.064,1.195,-0.342,7.080,31.311,115.051
-0.035,1.139,-0.328,8.850,30.884,113.037
-0.164,1.054,-0.377,7.019,28.625,114.197
-0.330,1.084,-0.414,5.920,25.940,114.990
-0.391,1.115,-0.453,4.944,24.353,111.267
-0.271,1.104,-0.468,6.348,26.489,105.530
-0.113,1.056,-0.451,9.094,29.480,96.497
-0.024,0.928,-0.390,12.939,33.386,86.914
-0.082,0.807,-0.337,16.296,38.269,77.271
-0.136,0.733,-0.315,19.470,42.603,67.017
-0.171,0.634,-0.371,20.508,40.649,57.617
-0.203,0.606,-0.311,21.973,36.194,49.683
-0.350,0.516,-0.296,20.874,34.973,43.396
-0.417,0.487,-0.298,18.921,34.180,37.170
-0.412,0.479,-0.298,17.761,32.837,29.480
-0.336,0.495,-0.298,19.836,29.785,21.484
0.016,0.663,-0.038,27.161,17.578,14.343
-0.870,0.639,-0.201,17.578,11.902,23.682
-0.610,0.524,-0.541,13.855,2.563,25.635
-0.018,0.382,-0.268,21.667,-5.371,7.812
0.102,0.180,-0.296,19.653,-11.597,-7.874
0.086,0.175,-0.296,15.564,-18.494,-14.954
0.116,0.236,-0.248,13.794,-26.123,-22.827
0.137,0.263,-0.255,11.719,-34.058,-33.752
0.097,0.340,-0.211,10.193,-38.696,-45.593
0.025,0.408,-0.193,10.925,-36.865,-57.251
0.013,0.409,-0.193,10.132,-37.048,-70.313
0.016,0.412,-0.195,7.812,-39.063,-83.130
0.003,0.434,-0.199,3.845,-42.053,-92.957
-0.041,0.488,-0.185,1.587,-43.640,-102.173
-0.061,0.518,-0.194,0.366,-45.105,-111.328
-0.063,0.552,-0.185,-1.099,-44.128,-120.728
-0.042,0.594,-0.175,-1.831,-43.396,-128.784
0.007,0.626,-0.168,-3.113,-44.006,-136.658
0.064,0.652,-0.180,-5.432,-48.340,-144.104
0.089,0.708,-0.212,-7.751,-54.688,-150.940
0.093,0.767,-0.231,-9.583,-62.866,-158.386
0.117,0.828,-0.263,-11.414,-71.106,-163.635
0.103,0.881,-0.290,-13.672,-74.646,-168.152
0.054,0.947,-0.303,-15.381,-73.853,-174.072
0.006,0.999,-0.340,-18.433,-71.960,-180.359
0.009,0.937,-0.438,-28.748,-80.322,-190.125
-0.162,1.195,-0.455,-23.865,-68.054,-196.533
-0.287,1.151,-0.462,-22.034,-54.443,-207.703
-0.180,1.190,-0.497,-8.118,-48.523,-190.247
-0.053,1.218,-0.562,-1.160,-46.753,-180.603
0.052,1.219,-0.615,-8.423,-49.683,-183.777
0.068,1.246,-0.591,-16.418,-51.697,-189.026
0.003,1.284,-0.567,-19.714,-50.171,-186.768
-0.116,1.302,-0.516,-29.114,-46.875,-196.167
-0.251,1.344,-0.497,-33.691,-40.771,-202.698
-0.294,1.381,-0.463,-35.339,-31.921,-203.247
-0.252,1.441,-0.457,-33.752,-24.536,-201.721
-0.296,1.486,-0.481,-27.954,-15.808,-198.608
-0.306,1.564,-0.430,-19.470,-2.869,-191.833
-0.308,1.552,-0.401,-13.000,10.132,-184.875
-0.325,1.474,-0.382,-11.658,21.484,-177.429
-0.295,1.371,-0.406,-15.564,27.588,-168.701
-0.206,1.317,-0.403,-20.264,25.391,-161.194
-0.181,1.291,-0.389,-22.278,20.630,-151.733
-0.156,1.273,-0.378,-22.949,15.198,-139.954
-0.139,1.258,-0.329,-23.437,10.559,-127.563
-0.133,1.229,-0.275,-22.095,6.592,-115.112
-0.154,1.189,-0.237,-20.447,2.869,-103.821
-0.217,1.147,-0.210,-18.250,0.671,-93.201
-0.275,1.112,-0.194,-16.663,1.282,-80.750
-0.312,1.086,-0.186,-14.832,2.930,-67.627
-0.350,1.094,-0.179,-13.367,3.723,-52.246
-0.366,1.098,-0.170,-11.658,6.165,-35.950
-0.346,1.080,-0.160,-8.972,6.104,-17.761
-0.307,1.064,-0.152,-4.761,4.517,-0.244
-0.247,1.008,-0.156,-2.869,1.526,16.724
-0.195,0.998,-0.154,-2.258,-3.601,32.410
-0.164,1.013,-0.180,-2.502,-6.042,43.518
-0.111,1.036,-0.184,-2.380,-8.423,52.551
-0.092,1.058,-0.156,-1.404,-12.512,62.988
-0.079,1.053,-0.155,0.427,-22.766,73.730
-0.076,1.026,-0.152,2.014,-28.503,81.604
0.282,0.960,-0.270,1.831,-28.381,79.285
0.980,0.909,-0.291,3.296,-28.992,63.049
1.372,0.674,-0.353,0.916,-29.541,46.814
1.365,0.544,-0.405,-5.676,-29.846,34.912
0.888,0.682,-0.258,-8.484,-26.978,32.532
0.293,0.936,-0.144,-5.676,-28.687,39.124
-0.051,1.132,-0.155,-0.977,-31.555,46.631
-0.059,1.225,-0.295,-0.061,-32.837,51.758
0.193,1.246,-0.315,1.160,-25.452,49.561
0.271,1.206,-0.280,1.709,-12.878,47.302
0.273,1.115,-0.342,2.197,-7.019,47.119
0.344,1.064,-0.367,3.296,-4.211,44.922
0.265,1.034,-0.364,2.747,-3.845,45.105
0.179,1.046,-0.330,1.221,-4.150,44.495
0.170,1.026,-0.346,1.221,-3.784,43.335
0.081,0.961,-0.459,0.671,-2.991,43.335
0.141,0.938,-0.532,2.991,-0.122,40.283
0.139,0.895,-0.523,7.141,7.629,33.691
0.102,0.847,-0.466,9.644,16.479,29.053
0.139,0.845,-0.445,8.118,19.592,26.672
0.265,0.873,-0.387,8.545,18.555,24.475
0.315,0.855,-0.359,8.545,17.761,22.827
0.260,0.860,-0.331,7.324,17.456,22.217
0.282,0.884,-0.300,5.676,18.677,21.301
0.277,0.868,-0.260,2.808,20.386,19.531
0.337,0.863,-0.265,-0.427,16.357,18.616
0.335,0.838,-0.286,-2.625,11.230,18.555

-0.027,1.279,-0.434,-3.967,6.470,-196.228
0.089,1.301,-0.415,-13.367,-2.319,-197.327
0.175,1.344,-0.415,-19.897,-11.353,-190.796
0.245,1.365,-0.398,-31.738,-25.879,-191.772
0.280,1.400,-0.364,-43.030,-45.471,-193.054
0.252,1.431,-0.362,-51.758,-68.787,-188.660
0.187,1.442,-0.370,-56.580,-89.722,-182.495
0.095,1.480,-0.390,-57.922,-104.675,-176.453
-0.006,1.502,-0.414,-56.519,-112.427,-170.715
-0.132,1.516,-0.419,-51.941,-112.915,-164.917
-0.266,1.562,-0.421,-43.518,-104.858,-159.729
-0.266,1.543,-0.397,-35.339,-93.140,-153.992
-0.239,1.507,-0.426,-28.259,-83.313,-147.583
-0.234,1.433,-0.491,-23.987,-74.829,-139.893
-0.252,1.345,-0.535,-21.179,-64.758,-132.507
-0.340,1.243,-0.564,-19.165,-52.612,-123.413
-0.408,1.182,-0.524,-18.250,-40.466,-112.000
-0.464,1.139,-0.451,-18.555,-28.442,-99.670
-0.535,1.120,-0.368,-18.799,-15.442,-87.402
-0.571,1.099,-0.293,-16.724,-4.517,-74.768
-0.572,1.101,-0.216,-13.245,4.456,-59.204
-0.552,1.092,-0.143,-8.728,10.986,-41.016
-0.499,1.086,-0.126,-5.127,14.160,-21.790
-0.428,1.058,-0.145,-1.160,12.268,-2.502
-0.371,1.025,-0.153,1.221,10.986,14.343
-0.286,1.000,-0.173,3.601,8.301,28.931
-0.175,0.969,-0.211,3.296,1.953,40.894
-0.094,1.000,-0.197,2.869,-3.906,50.659
-0.123,1.005,-0.174,3.967,-9.827,62.073
-0.173,0.989,-0.160,3.845,-17.883,71.960
-0.252,0.962,-0.168,2.869,-19.714,79.773
-0.098,0.929,-0.208,3.296,-17.334,81.604
0.192,0.937,-0.293,3.174,-19.104,78.247
0.777,0.805,-0.461,2.686,-18.066,62.439
1.386,0.584,-0.461,2.441,-16.602,39.001
1.483,0.416,-0.520,-4.639,-14.954,23.682
1.048,0.573,-0.291,-7.385,-4.211,18.066
0.458,0.862,-0.074,-2.747,-5.615,26.245
0.032,1.075,-0.033,2.014,-10.864,37.476
0.065,1.160,-0.266,4.211,-17.944,44.189
0.384,1.204,-0.302,3.235,-20.386,44.678
0.348,1.243,-0.296,-1.770,-15.198,46.936
0.337,1.233,-0.339,-5.554,-16.602,50.110
0.214,1.199,-0.391,-7.751,-20.996,54.382
0.255,1.197,-0.395,-8.240,-23.193,56.580
0.276,1.121,-0.329,-9.277,-22.522,56.641
0.218,1.067,-0.276,-10.254,-22.278,57.739
0.164,1.007,-0.328,-10.803,-20.203,55.847
0.002,0.999,-0.331,-7.629,-12.878,53.040
-0.003,0.946,-0.424,-2.563,-5.676,47.729
0.142,0.869,-0.437,0.000,0.732,38.452
0.222,0.820,-0.482,0.061,2.380,32.532
0.307,0.839,-0.404,0.549,1.404,27.710
0.128,0.850,-0.358,0.977,1.892,26.550
0.085,0.901,-0.307,2.136,2.319,25.452
0.168,0.907,-0.319,2.991,5.615,22.217
0.312,0.921,-0.266,4.761,11.658,16.846
0.366,0.885,-0.185,3.235,15.381,13.916
0.162,0.891,-0.267,-0.244,17.578,17.395
0.237,0.915,-0.239,-1.648,14.771,18.372
0.269,0.899,-0.300,-3.906,12.756,17.456
0.372,0.850,-0.264,-3.601,9.827,16.602
0.413,0.814,-0.309,-6.226,7.690,15.808
0.240,0.816,-0.326,-9.338,5.310,16.846
0.222,0.874,-0.403,-8.606,4.089,16.235
0.295,0.875,-0.435,-6.592,4.150,13.489
0.187,0.895,-0.379,-6.897,5.615,15.320
0.251,0.936,-0.414,-4.578,5.798,14.709
0.269,0.920,-0.362,-3.784,7.751,12.512
0.106,0.932,-0.391,-3.906,10.010,14.404
0.302,0.941,-0.362,-1.770,11.047,10.376
0.222,0.894,-0.329,-3.906,14.404,9.460
0.170,0.933,-0.406,-4.456,13.367,11.353
0.261,0.948,-0.365,-3.174,12.329,10.437
0.240,0.945,-0.381,-2.319,13.611,11.536
0.169,0.896,-0.363,-0.488,12.207,10.803
0.289,0.896,-0.393,1.709,13.000,8.789
0.135,0.868,-0.364,2.197,15.625,8.667
0.138,0.910,-0.364,2.319,15.991,8.606
0.216,0.897,-0.366,4.028,17.822,6.470
0.319,0.871,-0.319,3.601,19.409,4.333
0.259,0.870,-0.341,2.991,17.334,6.226
0.241,0.868,-0.346,2.808,16.052,7.446
0.303,0.882,-0.328,2.502,14.160,8.057
0.130,0.874,-0.375,1.526,10.742,11.658
0.289,0.903,-0.382,2.075,9.644,11.169
0.251,0.852,-0.381,1.709,8.118,11.658
0.244,0.867,-0.363,3.479,7.141,12.329
0.191,0.883,-0.375,3.540,7.507,13.672
0.171,0.917,-0.359,3.357,6.470,14.648
0.199,0.906,-0.333,4.089,8.118,15.076
0.185,0.905,-0.344,4.700,10.620,15.198
0.162,0.890,-0.342,4.639,10.559,15.259
0.190,0.907,-0.342,4.578,9.399,15.808
0.215,0.877,-0.325,3.235,8.789,16.235
0.167,0.900,-0.320,2.258,7.080,16.907
0.147,0.876,-0.341,1.892,6.531,16.663
0.150,0.916,-0.341,1.892,6.531,16.724
0.150,0.898,-0.356,0.793,5.371,16.785
0.137,0.934,-0.375,2.441,6.592,16.235
0.227,0.860,-0.378,1.831,6.775,14.587
0.236,0.913,-0.369,1.526,6.226,15.503
0.100,0.871,-0.364,1.282,6.042,15.625
0.156,0.926,-0.341,1.892,7.202,15.625
0.088,0.866,-0.354,-0.427,6.775,16.724
0.217,0.912,-0.355,0.244,5.310,16.052
0.157,0.884,-0.344,-0.427,6.104,15.930
0.175,0.908,-0.341,-1.526,7.141,16.113
0.070,0.907,-0.349,-2.319,6.653,17.090
0.181,0.920,-0.348,-0.793,5.493,17.273
-0.009,0.929,-0.353,-0.671,6.042,20.142
0.115,0.928,-0.371,1.099,7.629,17.517
0.182,0.867,-0.375,-0.793,7.751,17.700
0.155,0.889,-0.374,-0.427,7.629,17.456
0.248,0.853,-0.356,-0.671,7.629,15.503
-0.005,0.940,-0.354,-1.526,5.859,20.203
0.017,0.946,-0.361,-0.488,5.615,21.301
0.057,0.974,-0.368,1.587,8.667,22.095
0.161,0.892,-0.387,1.953,11.841,20.325
0.320,0.853,-0.366,0.244,15.076,20.569
-0.057,0.959,-0.373,0.671,16.174,25.330
0.125,0.897,-0.364,1.099,15.198,25.879
0.080,0.987,-0.358,2.625,15.381,29.236
0.169,0.888,-0.391,2.930,16.968,27.588
0.169,0.949,-0.369,3.235,20.142,28.564
-0.008,0.907,-0.409,3.418,20.020,31.494
0.106,0.970,-0.356,7.202,22.461,32.471
0.211,0.889,-0.377,6.042,23.132,33.020
0.010,0.930,-0.398,5.432,22.888,38.513
0.196,0.916,-0.341,7.935,23.804,38.086
0.063,0.906,-0.402,6.470,25.208,41.809
0.078,0.963,-0.323,9.277,25.635,43.335
0.196,0.912,-0.401,7.874,26.123,44.312
-0.005,1.010,-0.412,9.705,26.245,47.852
0.104,0.928,-0.414,10.559,26.428,47.058
0.015,1.002,-0.423,11.658,27.344,50.354
-0.050,0.979,-0.406,12.939,29.907,49.988
0.127,0.924,-0.414,13.550,31.799,49.561
-0.141,1.019,-0.422,13.794,33.813,53.528
-0.025,1.041,-0.259,17.151,36.743,52.979
0.166,0.973,-0.333,18.372,38.147,53.955
0.089,1.013,-0.382,18.799,36.926,56.824
0.066,1.032,-0.380,18.127,34.241,59.753
0.005,1.075,-0.432,17.395,32.654,64.392
-0.029,1.187,-0.349,19.287,31.982,67.810
0.115,1.127,-0.343,20.081,33.936,68.298
0.091,1.168,-0.367,20.569,32.776,71.045
0.036,1.202,-0.348,20.935,32.166,73.059
0.010,1.255,-0.366,22.095,31.616,74.219
0.017,1.271,-0.401,22.278,31.921,74.585
0.041,1.301,-0.426,22.644,34.241,75.928
0.020,1.321,-0.443,22.339,34.729,77.942
0.149,1.296,-0.373,23.071,39.673,80.383
0.115,1.288,-0.364,22.522,43.518,85.754
0.194,1.316,-0.278,24.048,45.471,91.736
0.233,1.324,-0.243,24.963,45.654,99.182
0.269,1.267,-0.233,24.597,43.152,106.812
0.296,1.214,-0.290,21.729,40.833,113.586
0.368,1.107,-0.258,16.235,39.917,119.446
0.292,1.122,-0.320,11.353,35.461,123.413
0.172,1.151,-0.313,5.981,29.907,125.488
0.072,1.226,-0.335,4.517,26.550,126.404
0.004,1.218,-0.347,3.601,19.958,126.831
-0.023,1.202,-0.355,3.662,14.038,126.953
-0.020,1.141,-0.364,2.747,5.249,124.939
-0.185,1.104,-0.358,2.258,-0.122,124.329
-0.375,1.088,-0.410,0.732,-3.662,122.925
-0.396,1.088,-0.473,0.671,-6.958,117.737
-0.339,1.027,-0.507,0.977,-8.484,110.535
-0.309,0.935,-0.464,2.991,-5.066,104.004
-0.238,0.797,-0.405,5.798,-0.854,95.032
-0.291,0.650,-0.333,9.277,5.859,83.374
-0.390,0.543,-0.313,12.939,12.451,70.496
-0.534,0.438,-0.336,14.404,13.367,61.584
-0.592,0.345,-0.378,13.489,12.024,55.115
-0.332,0.398,-0.324,16.541,12.085,41.504
-0.141,0.390,-0.321,18.494,12.268,26.611
-0.054,0.388,-0.313,18.799,14.099,13.977
0.023,0.429,-0.238,20.569,14.648,3.418
-0.062,0.447,-0.189,22.644,13.794,-2.869
-0.033,0.364,-0.199,24.719,11.414,-10.071
0.020,0.251,-0.200,27.100,8.301,-20.752
0.043,0.156,-0.210,28.625,4.761,-32.349
0.063,0.149,-0.201,28.259,1.099,-44.067
0.074,0.195,-0.185,28.687,-3.906,-55.054
0.018,0.248,-0.197,25.879,-12.268,-63.416
-0.017,0.291,-0.208,22.217,-20.264,-71.899
-0.029,0.316,-0.209,19.775,-28.015,-82.886
-0.023,0.340,-0.200,15.869,-34.119,-94.421
-0.010,0.383,-0.188,12.207,-38.269,-104.736
0.018,0.431,-0.187,9.705,-41.626,-115.051
0.060,0.462,-0.203,6.287,-45.471,-124.023
0.093,0.500,-0.200,3.418,-49.011,-132.996
0.121,0.539,-0.208,-0.549,-54.932,-140.991
0.128,0.609,-0.219,-4.089,-60.059,-149.536
0.105,0.693,-0.257,-6.409,-64.697,-157.898
0.088,0.756,-0.279,-9.949,-66.528,-165.283
0.021,0.818,-0.300,-12.329,-64.148,-172.363
-0.054,0.878,-0.358,-15.015,-60.913,-178.833
-0.126,0.954,-0.411,-20.569,-60.181,-186.096
-0.114,0.938,-0.439,-28.198,-63.477,-190.369
-0.200,1.029,-0.495,-28.198,-56.274,-205.933
-0.160,1.315,-0.556,-17.578,-57.556,-200.012
-0.145,1.318,-0.563,-10.559,-60.547,-193.054
-0.133,1.365,-0.555,-8.972,-61.646,-185.547
-0.207,1.421,-0.500,-9.521,-55.237,-183.533
-0.326,1.437,-0.493,-11.841,-45.532,-180.176
-0.431,1.466,-0.510,-14.832,-35.278,-178.528
-0.527,1.460,-0.522,-19.653,-24.231,-175.659
-0.572,1.485,-0.519,-22.156,-15.808,-169.678
-0.572,1.488,-0.505,-23.071,-8.362,-160.828
-0.578,1.455,-0.461,-21.118,-1.953,-151.428
-0.599,1.391,-0.412,-16.174,8.057,-140.320
-0.590,1.346,-0.374,-10.376,20.813,-127.747
-0.594,1.271,-0.357,-6.104,33.691,-115.662
-0.544,1.200,-0.337,-4.150,44.861,-105.164
-0.437,1.110,-0.317,-6.104,52.551,-97.290
-0.354,1.089,-0.306,-7.690,51.331,-88.196
-0.356,1.086,-0.257,-7.629,48.584,-77.515
-0.361,1.069,-0.200,-7.935,44.556,-65.979
-0.353,1.056,-0.154,-7.019,39.368,-55.481
-0.337,1.035,-0.123,-6.287,31.494,-44.189
-0.310,1.018,-0.122,-6.592,19.287,-32.043
-0.341,1.032,-0.115,-7.141,8.911,-20.447
-0.378,1.055,-0.114,-6.592,2.930,-8.728
-0.370,1.077,-0.120,-7.263,-4.089,0.549
-0.385,1.094,-0.124,-9.277,-6.958,7.446
-0.385,1.140,-0.100,-7.507,-10.681,15.686
-0.357,1.174,-0.079,-3.418,-15.930,26.489
-0.325,1.177,-0.061,1.221,-21.729,36.987
-0.103,1.187,0.027,6.287,-26.123,41.321
0.221,1.269,0.226,16.296,-25.879,38.940
0.608,0.998,-0.056,13.428,-28.259,33.142
0.923,0.908,-0.353,2.075,-31.555,24.414
0.834,0.911,-0.528,-8.362,-31.982,20.874
0.388,1.072,-0.462,-13.672,-31.616,26.794
-0.130,1.245,-0.400,-14.404,-28.809,41.443
-0.282,1.393,-0.421,-10.986,-22.522,52.185

0.153,0.933,-0.304,-0.671,5.066,12.512
0.060,0.913,-0.369,-1.709,3.418,13.245
0.214,0.931,-0.337,0.183,4.211,10.681
0.161,0.871,-0.377,0.122,1.282,10.193
0.134,0.891,-0.350,0.122,2.686,8.911
0.046,0.901,-0.377,0.488,3.174,8.423
0.087,0.939,-0.357,0.854,6.042,6.470
0.032,0.925,-0.362,1.038,6.165,7.385
0.062,0.961,-0.342,2.380,7.996,7.996
0.194,0.891,-0.356,3.418,8.606,5.981
0.185,0.888,-0.350,2.319,5.920,7.751
0.224,0.899,-0.356,3.113,7.507,6.409
0.167,0.879,-0.344,2.197,6.348,7.263
0.004,0.957,-0.333,1.526,5.005,9.644
0.042,0.943,-0.320,2.930,5.615,10.559
0.116,0.951,-0.314,2.441,6.042,10.986
0.211,0.865,-0.353,2.502,3.967,9.583
0.340,0.878,-0.329,1.526,3.723,9.583
-0.021,0.901,-0.381,-1.282,1.770,14.343
0.178,0.928,-0.335,1.221,1.099,13.733
0.040,0.931,-0.409,-0.854,-1.526,17.883
0.202,0.896,-0.355,0.793,-0.122,16.052
0.104,0.912,-0.355,0.854,1.587,17.212
0.102,0.890,-0.339,0.610,4.272,15.747
-0.018,0.952,-0.353,1.221,4.578,17.395
0.106,0.914,-0.347,1.709,5.493,15.442
0.132,0.917,-0.323,0.732,6.531,15.869
-0.028,0.939,-0.356,1.282,5.249,17.761
0.216,0.925,-0.336,3.784,6.470,15.625
0.052,0.887,-0.368,1.099,6.226,19.775
0.076,0.940,-0.354,3.418,6.592,18.555
0.200,0.879,-0.351,1.831,6.836,18.005
-0.012,0.933,-0.377,1.465,6.714,20.386
0.122,0.901,-0.347,2.808,8.484,19.104
0.070,0.925,-0.351,1.282,8.301,21.851
0.028,0.910,-0.379,2.625,10.742,23.315
0.207,0.937,-0.332,3.967,14.099,24.170
0.077,0.885,-0.403,3.174,11.719,29.114
0.028,0.944,-0.377,4.089,10.803,32.043
0.197,0.914,-0.363,5.493,12.146,31.555
0.115,0.882,-0.373,4.333,11.353,33.081
0.028,0.926,-0.342,5.554,11.292,34.119
0.081,0.943,-0.332,6.226,13.245,34.485
-0.062,0.936,-0.359,6.042,11.353,38.635
0.077,0.963,-0.328,7.751,11.902,38.574
0.088,0.913,-0.407,7.629,12.939,39.856
0.044,0.930,-0.396,8.484,12.512,41.687
0.017,0.950,-0.385,9.033,12.878,43.274
0.030,0.952,-0.402,10.925,13.977,43.945
-0.026,0.942,-0.397,12.085,14.038,44.800
-0.040,0.932,-0.405,12.146,15.320,45.227
-0.073,0.969,-0.367,13.000,18.982,45.288
0.031,0.948,-0.391,13.855,20.935,44.495
-0.039,1.016,-0.389,15.564,23.071,44.922
-0.021,1.031,-0.416,16.846,25.818,45.166
0.010,1.047,-0.389,16.968,27.588,47.180
-0.064,1.025,-0.368,15.686,28.137,49.805
0.128,0.990,-0.311,15.564,30.090,49.011
0.028,0.975,-0.366,13.367,30.090,50.537
0.090,1.033,-0.355,11.841,28.381,50.659
-0.063,1.199,-0.365,11.108,28.076,52.795
-0.039,1.237,-0.334,11.658,29.968,53.772
0.041,1.289,-0.308,13.672,32.532,55.237
0.153,1.189,-0.321,11.841,34.302,55.298
0.076,1.228,-0.258,9.644,35.461,58.960
-0.020,1.236,-0.278,8.606,32.349,62.744
0.097,1.218,-0.251,10.254,32.898,65.308
-0.025,1.213,-0.261,9.216,30.579,70.374
0.027,1.184,-0.239,8.789,31.677,72.083
0.070,1.104,-0.255,8.057,32.715,74.158
0.018,1.087,-0.267,7.812,33.630,75.806
0.049,1.051,-0.262,6.897,36.377,76.538
-0.080,1.055,-0.310,5.493,37.903,79.651
-0.059,1.066,-0.338,4.211,39.368,81.604
-0.039,1.075,-0.394,2.197,38.452,83.923
0.068,1.061,-0.390,-0.793,37.048,83.984
0.081,1.070,-0.351,-1.770,38.879,83.618
-0.076,1.057,-0.367,-3.418,38.757,87.708
-0.115,1.089,-0.361,-2.625,37.964,89.600
-0.205,1.102,-0.343,-1.831,36.926,92.896
-0.219,1.147,-0.306,1.404,40.527,93.689
-0.209,1.092,-0.353,2.441,42.725,93.628
-0.220,1.080,-0.386,3.540,44.434,93.628
-0.271,1.064,-0.466,2.808,45.471,93.994
-0.259,1.074,-0.474,3.174,46.387,92.529
-0.228,1.047,-0.462,4.456,46.692,90.210
-0.204,0.995,-0.434,5.493,46.875,87.830
-0.203,0.926,-0.423,6.470,46.753,84.290
-0.195,0.830,-0.400,7.690,47.302,78.247
-0.250,0.776,-0.366,9.094,48.279,72.083
-0.328,0.680,-0.380,8.911,48.340,65.735
-0.313,0.666,-0.359,10.559,46.814,57.617
-0.121,0.627,-0.318,12.390,43.884,46.509
-0.002,0.597,-0.292,12.817,40.405,35.645
0.051,0.582,-0.267,12.512,35.645,26.001
0.047,0.546,-0.236,12.756,29.724,17.944
0.070,0.480,-0.207,12.085,23.682,8.484
0.114,0.449,-0.177,11.536,17.883,-1.709
0.130,0.433,-0.157,11.169,11.658,-10.986
0.112,0.441,-0.148,10.315,4.944,-19.775
0.087,0.450,-0.152,9.521,-0.366,-28.503
0.079,0.467,-0.162,8.850,-5.005,-37.476
0.101,0.487,-0.173,7.690,-10.315,-46.814
0.115,0.505,-0.179,6.042,-16.724,-55.420
0.087,0.514,-0.180,4.456,-21.240,-64.209
0.055,0.523,-0.179,2.625,-25.024,-72.510
0.038,0.525,-0.185,0.122,-27.954,-80.811
0.048,0.530,-0.198,-1.953,-32.471,-88.806
0.054,0.543,-0.202,-4.272,-37.659,-96.924
0.066,0.565,-0.212,-8.545,-43.457,-104.492
0.072,0.599,-0.220,-10.925,-50.171,-112.671
0.081,0.638,-0.237,-13.000,-55.054,-121.155
0.084,0.677,-0.252,-14.709,-58.655,-128.967
0.084,0.718,-0.266,-16.174,-61.523,-136.902
0.084,0.752,-0.295,-19.470,-65.430,-145.752
0.126,0.738,-0.301,-21.545,-71.167,-149.658
0.033,0.802,-0.328,-22.705,-66.406,-161.865
0.035,0.948,-0.349,-20.569,-70.740,-165.039
-0.006,1.004,-0.358,-14.282,-68.909,-167.236
-0.008,1.040,-0.366,-12.756,-67.932,-171.936
-0.012,1.093,-0.382,-12.207,-65.796,-177.063
0.025,1.137,-0.400,-11.719,-63.171,-181.274
0.050,1.192,-0.435,-10.986,-61.646,-184.998
0.068,1.217,-0.479,-12.451,-59.875,-186.951
0.070,1.262,-0.497,-13.916,-57.617,-188.171
0.033,1.290,-0.525,-15.625,-54.565,-189.209
-0.034,1.331,-0.494,-16.968,-50.415,-189.819
-0.083,1.361,-0.463,-17.151,-47.791,-190.979
-0.143,1.400,-0.454,-15.869,-42.969,-190.674
-0.211,1.422,-0.438,-16.052,-38.147,-188.293
-0.271,1.471,-0.446,-13.611,-31.677,-184.937
-0.316,1.493,-0.431,-12.817,-22.522,-180.542
-0.339,1.516,-0.435,-10.864,-14.099,-174.683
-0.301,1.471,-0.443,-10.498,-7.019,-167.358
-0.284,1.474,-0.338,-10.010,-2.319,-157.959
-0.277,1.396,-0.308,-10.132,0.671,-147.034
-0.255,1.345,-0.318,-12.329,0.549,-137.085
-0.230,1.281,-0.335,-15.625,-3.235,-126.709
-0.226,1.245,-0.334,-17.822,-7.935,-114.807
-0.260,1.201,-0.308,-19.104,-10.681,-101.990
-0.270,1.166,-0.274,-19.226,-13.794,-88.867
-0.274,1.140,-0.245,-18.494,-15.930,-75.439
-0.283,1.126,-0.224,-16.479,-17.883,-62.500
-0.292,1.088,-0.209,-14.404,-19.470,-49.255
-0.295,1.085,-0.197,-12.939,-21.606,-36.194
-0.303,1.059,-0.178,-11.108,-22.400,-23.987
-0.304,1.045,-0.170,-8.667,-21.545,-12.634
-0.299,1.025,-0.184,-6.531,-21.484,-1.587
-0.306,1.009,-0.191,-5.920,-21.606,9.705
-0.313,1.016,-0.196,-5.066,-20.508,21.118
-0.305,1.027,-0.206,-2.747,-18.555,30.579
-0.270,1.012,-0.242,-1.587,-18.127,38.452
-0.247,1.015,-0.267,-1.587,-17.517,47.424
-0.269,1.001,-0.262,-0.183,-16.663,55.603
-0.297,0.970,-0.277,0.793,-15.320,63.416
-0.355,0.974,-0.294,1.282,-11.902,70.068
-0.167,0.986,-0.309,4.639,-6.836,71.655
0.043,0.969,-0.276,7.141,0.305,68.054
0.166,0.813,-0.428,2.686,4.028,64.209
0.669,0.726,-0.604,0.244,6.165,50.293
1.178,0.636,-0.519,-0.061,2.380,31.921
1.364,0.511,-0.515,-3.845,-2.014,17.395
1.177,0.639,-0.247,-4.456,-6.470,13.794
0.635,0.823,-0.065,-3.601,-15.747,20.752
0.246,1.059,-0.042,-2.258,-29.419,30.701
0.140,1.200,-0.174,-2.747,-38.696,35.339
0.068,1.315,-0.327,-7.568,-37.720,37.109
0.269,1.367,-0.354,-7.507,-31.921,35.034
0.232,1.283,-0.257,-4.700,-22.888,33.813
0.058,1.202,-0.229,-3.662,-13.672,36.316
-0.021,1.127,-0.308,-5.493,-8.362,39.917
0.092,1.133,-0.336,-6.531,-3.113,37.720
0.188,1.128,-0.314,-4.822,2.686,35.583
0.242,1.064,-0.245,0.366,9.583,34.241
0.268,0.911,-0.330,3.357,13.245,32.532
0.206,0.797,-0.448,2.136,11.658,30.762
0.296,0.786,-0.534,2.686,8.728,25.574
0.262,0.778,-0.515,3.174,6.409,20.630
0.309,0.795,-0.437,3.296,4.822,17.761
0.241,0.786,-0.431,3.113,3.601,16.174
0.223,0.792,-0.360,3.906,3.357,14.282
0.227,0.848,-0.374,4.700,5.493,13.062
0.311,0.866,-0.281,5.127,7.812,10.864
0.348,0.846,-0.259,3.174,9.644,10.498
0.275,0.858,-0.238,-1.099,7.141,12.817
0.359,0.887,-0.234,-2.808,3.113,14.099
0.178,0.896,-0.223,-5.432,2.380,15.991
0.332,0.914,-0.238,-7.446,1.038,14.893
0.343,0.867,-0.262,-9.644,-0.305,13.550
0.300,0.897,-0.317,-9.399,-1.282,13.367
0.344,0.896,-0.313,-9.583,0.610,10.071
0.091,0.926,-0.362,-11.292,3.723,13.000
0.149,0.954,-0.361,-9.460,5.371,13.916
0.201,0.931,-0.410,-9.521,8.423,13.733
0.337,0.907,-0.363,-7.935,8.850,11.536
0.398,0.868,-0.371,-6.958,10.559,8.301
0.043,0.861,-0.385,-8.789,11.292,10.010
0.278,0.918,-0.384,-5.798,8.972,7.446
0.099,0.890,-0.399,-6.958,9.766,8.118
0.286,0.961,-0.327,-3.113,10.803,6.104
0.211,0.908,-0.354,-3.845,12.695,5.066
0.332,0.917,-0.346,-1.404,11.536,5.615
0.132,0.885,-0.408,-2.380,11.108,8.057
0.304,0.904,-0.373,0.122,12.085,5.676
0.337,0.848,-0.349,-1.221,11.841,7.019
0.174,0.841,-0.374,-1.099,8.850,11.353
0.346,0.873,-0.390,1.282,7.629,9.521
0.284,0.839,-0.368,0.000,9.338,11.169
0.159,0.891,-0.417,0.732,8.179,14.954
0.358,0.864,-0.412,2.197,8.667,12.939
0.225,0.857,-0.368,1.770,10.193,16.418
0.212,0.894,-0.399,3.723,10.193,17.029
0.266,0.835,-0.387,3.052,9.521,17.212
0.257,0.872,-0.369,2.869,7.568,19.836
0.171,0.838,-0.390,1.770,7.141,19.775
0.327,0.886,-0.339,2.991,7.874,17.883
0.104,0.867,-0.348,2.075,8.057,20.630
0.116,0.922,-0.329,3.540,8.057,19.958
0.289,0.907,-0.334,2.747,6.897,17.334
0.234,0.872,-0.324,1.648,5.676,17.883
0.173,0.900,-0.355,1.099,4.944,17.761
0.151,0.893,-0.360,-0.183,4.456,16.479
0.122,0.900,-0.321,-0.732,3.296,18.494
0.106,0.928,-0.371,-1.160,2.625,19.409
0.224,0.905,-0.345,-1.892,3.845,17.822
0.195,0.908,-0.349,-1.892,2.197,19.592
0.125,0.896,-0.390,-1.892,2.197,19.714
0.108,0.920,-0.395,-1.648,3.662,19.958
0.150,0.929,-0.389,-0.610,7.080,18.982
0.100,0.922,-0.376,0.366,9.094,19.348
0.097,0.912,-0.372,1.343,11.353,19.470
0.068,0.931,-0.373,2.197,14.465,19.348
0.192,0.898,-0.351,2.075,14.709,18.127
0.139,0.926,-0.352,1.953,13.672,19.592
0.103,0.894,-0.374,1.648,14.465,19.409
0.112,0.915,-0.367,1.709,14.343,19.592
0.073,0.887,-0.372,1.709,14.526,20.813
0.165,0.926,-0.362,2.747,16.846,19.531

-0.032,0.994,-0.141,3.906,-6.409,51.514
0.015,0.953,-0.186,5.066,-6.165,63.965
0.110,0.974,-0.209,5.798,-9.399,70.862
0.222,0.969,-0.183,6.226,-15.198,76.904
0.305,0.924,-0.176,6.470,-23.193,81.726
0.435,0.862,-0.216,5.188,-31.189,82.520
0.552,0.774,-0.267,0.793,-40.588,78.430
0.752,0.660,-0.501,-4.700,-49.011,67.444
0.950,0.661,-0.458,-7.263,-52.185,49.377
0.770,0.472,-0.569,-14.343,-52.185,33.020
0.510,0.511,-0.718,-22.339,-47.363,23.071
0.294,0.653,-0.706,-24.536,-32.959,13.367
-0.012,0.933,-0.483,-15.503,-9.705,8.301
-0.103,1.123,-0.297,-1.953,7.019,7.935
0.116,1.194,-0.156,9.827,10.803,12.024
0.473,1.110,-0.182,12.634,6.287,15.259
0.825,1.052,-0.157,11.841,-1.587,16.418
0.516,1.106,-0.120,2.869,-4.944,26.062
0.327,1.227,-0.256,-2.625,-14.404,36.926
0.351,1.263,-0.222,-5.188,-21.057,40.771
0.304,1.183,-0.218,-9.094,-22.888,44.922
0.395,1.113,-0.118,-10.620,-19.531,46.692
0.213,1.026,-0.162,-12.024,-13.855,48.889
0.221,1.025,-0.246,-10.315,-7.812,47.852
0.138,1.001,-0.274,-6.592,-1.404,46.387
0.169,0.943,-0.404,-3.723,5.554,44.922
0.204,0.887,-0.426,-1.221,9.644,42.786
0.167,0.850,-0.448,0.305,13.184,41.016
0.259,0.839,-0.484,1.587,15.381,38.513
0.253,0.807,-0.409,2.991,15.259,35.950
0.135,0.832,-0.398,2.625,16.052,35.889
0.262,0.831,-0.376,4.456,15.991,30.029
0.239,0.813,-0.300,3.113,20.508,26.306
0.201,0.856,-0.265,2.625,24.231,25.940
0.257,0.869,-0.271,0.122,23.621,25.024
0.171,0.893,-0.280,-5.249,22.705,28.931
0.306,0.936,-0.332,-7.446,19.287,30.029
0.358,0.905,-0.340,-8.057,13.306,28.870
0.316,0.918,-0.333,-7.996,9.277,29.724
0.212,0.910,-0.347,-7.690,7.019,28.748
0.206,0.913,-0.382,-5.432,7.446,25.696
0.232,0.887,-0.367,-4.761,6.897,23.743
0.229,0.903,-0.397,-3.418,6.470,22.217
0.165,0.926,-0.404,-2.808,7.996,20.874
0.264,0.944,-0.395,-1.587,8.972,17.944
0.171,0.911,-0.375,-2.136,9.094,16.296
0.227,0.913,-0.340,-0.549,7.629,15.137
0.168,0.887,-0.330,-0.183,8.301,14.038
0.235,0.913,-0.342,-0.549,7.935,12.024
0.138,0.904,-0.341,-0.854,4.333,12.390
0.310,0.925,-0.367,0.916,4.089,9.277
0.156,0.873,-0.366,-1.099,3.784,8.179
0.302,0.906,-0.348,-0.732,2.869,7.141
0.139,0.902,-0.338,-1.648,1.831,8.484
0.256,0.914,-0.319,-0.061,0.061,7.080
0.134,0.876,-0.334,-1.038,-1.831,8.972
0.231,0.906,-0.341,-0.305,-1.831,7.446
0.192,0.856,-0.346,-0.916,-1.526,6.226
0.203,0.864,-0.333,-2.258,-1.038,6.042
0.200,0.852,-0.334,-3.723,-1.770,6.042
0.232,0.884,-0.346,-4.150,-2.686,6.531
0.184,0.863,-0.344,-4.700,-5.249,8.057
0.080,0.906,-0.366,-4.272,-7.690,10.681
0.216,0.885,-0.390,-3.906,-6.958,8.240
0.174,0.869,-0.369,-5.005,-4.395,8.240
0.131,0.882,-0.354,-3.845,-1.648,7.690
0.239,0.907,-0.310,-2.747,1.648,5.371
0.100,0.904,-0.328,-3.723,1.099,8.362
0.099,0.956,-0.338,-2.502,2.014,9.033
0.056,0.948,-0.366,-2.075,2.747,11.536
0.219,0.941,-0.341,-1.587,4.333,11.658
0.273,0.875,-0.370,-1.709,4.883,11.963
0.309,0.868,-0.319,-1.099,5.859,12.695
-0.001,0.929,-0.367,-2.258,6.042,16.479
0.149,0.921,-0.361,-1.099,8.179,15.503
0.078,0.962,-0.401,-1.465,6.348,19.165
0.245,0.899,-0.384,-0.183,8.057,17.822
0.165,0.904,-0.394,1.282,7.446,19.958
0.184,0.870,-0.381,0.854,8.606,18.921
0.010,0.946,-0.395,1.160,7.446,21.240
0.127,0.913,-0.370,3.357,10.132,19.348
0.143,0.892,-0.355,1.892,13.245,19.836
0.007,0.892,-0.384,1.099,12.451,21.606
0.247,0.919,-0.357,2.686,12.878,19.348
0.096,0.885,-0.385,0.122,12.512,21.667
0.069,0.964,-0.367,2.625,12.695,21.484
0.236,0.881,-0.361,3.479,13.794,19.409
0.025,0.914,-0.340,1.770,12.146,23.804
0.146,0.906,-0.358,2.991,13.184,21.545
0.110,0.898,-0.381,2.625,9.827,23.315
0.064,0.890,-0.379,3.418,8.789,23.804
0.152,0.938,-0.376,4.456,9.644,23.376
0.047,0.868,-0.398,2.625,9.033,24.902
-0.006,0.959,-0.376,4.211,6.165,27.405
0.137,0.914,-0.377,6.409,8.545,25.818
0.158,0.863,-0.385,4.700,10.315,26.245
0.085,0.932,-0.374,4.517,8.911,27.405
0.083,0.954,-0.347,5.127,10.315,27.100
0.015,0.940,-0.360,4.944,9.827,28.748
0.004,0.972,-0.372,5.798,8.057,28.442
0.056,0.903,-0.382,4.639,11.475,26.611
0.035,0.938,-0.363,5.127,13.306,25.757
0.001,0.910,-0.363,5.310,13.916,25.513
0.040,0.925,-0.344,5.310,15.564,26.917
0.065,0.896,-0.379,4.639,17.151,27.344
0.068,0.929,-0.376,5.737,16.052,29.602
0.021,0.953,-0.407,6.775,17.395,32.837
0.165,0.927,-0.406,9.094,17.883,33.997
0.085,0.912,-0.451,9.155,15.869,37.964
0.092,0.921,-0.401,10.193,16.113,40.100
-0.005,0.991,-0.386,9.521,16.785,41.565
0.006,0.957,-0.379,10.193,16.418,42.542
0.033,1.015,-0.362,12.207,18.494,43.701
0.012,0.905,-0.431,12.573,21.301,44.067
0.108,0.910,-0.410,13.977,21.973,45.105
-0.075,0.964,-0.427,13.367,23.743,49.561
0.086,0.939,-0.375,14.587,25.879,51.086
0.004,1.047,-0.411,15.991,25.024,55.176
0.111,0.983,-0.445,15.686,25.635,55.115
0.042,1.075,-0.444,14.771,23.254,57.068
-0.033,1.079,-0.414,13.550,25.024,58.716
-0.005,1.094,-0.321,12.085,26.917,60.852
-0.077,1.115,-0.318,11.047,27.161,63.477
0.075,1.147,-0.291,12.390,27.405,64.636
0.098,1.183,-0.330,10.620,25.513,68.726
0.103,1.223,-0.345,9.277,25.146,70.923
0.145,1.198,-0.319,7.019,26.245,74.585
-0.055,1.291,-0.323,5.310,26.917,80.566
-0.061,1.267,-0.279,4.761,30.762,83.618
0.057,1.305,-0.239,5.859,36.377,85.449
0.182,1.286,-0.256,5.615,39.490,86.731
0.137,1.236,-0.319,4.395,41.870,89.478
0.009,1.312,-0.343,5.310,41.931,94.421
-0.004,1.217,-0.403,5.554,44.678,96.619
0.113,1.258,-0.389,6.226,44.983,98.938
0.178,1.192,-0.453,3.479,47.607,98.877
0.231,1.167,-0.489,0.488,44.250,99.609
0.023,1.107,-0.504,-4.883,44.250,100.708
-0.065,1.092,-0.409,-4.883,46.936,102.234
-0.086,1.071,-0.381,-6.836,48.462,100.647
-0.321,1.139,-0.330,-6.653,50.537,100.403
-0.453,1.164,-0.307,-3.357,61.157,96.680
-0.407,1.068,-0.371,-3.235,67.261,93.323
-0.415,1.018,-0.490,-5.493,68.115,92.651
-0.280,0.994,-0.484,-5.127,66.345,88.440
-0.244,0.927,-0.452,-4.944,66.772,83.618
-0.216,0.858,-0.427,-3.174,69.458,78.430
-0.195,0.763,-0.418,-1.526,71.655,72.144
-0.194,0.705,-0.383,-0.122,73.181,65.979
-0.225,0.587,-0.338,1.709,73.669,58.411
-0.293,0.555,-0.346,2.686,72.388,50.903
-0.193,0.472,-0.329,3.296,67.444,40.894
-0.029,0.498,-0.294,4.944,61.523,27.893
0.052,0.528,-0.242,7.019,54.932,16.724
0.059,0.501,-0.204,8.423,46.814,8.240
0.114,0.452,-0.183,8.911,36.804,0.122
0.164,0.407,-0.151,9.338,25.879,-7.935
0.148,0.379,-0.133,9.216,14.648,-15.564
0.116,0.380,-0.130,8.728,3.052,-22.766
0.096,0.387,-0.139,8.545,-8.179,-30.640
0.107,0.390,-0.151,7.507,-19.897,-38.635
0.105,0.409,-0.159,7.202,-32.288,-46.448
0.079,0.420,-0.177,5.432,-41.748,-54.688
0.046,0.444,-0.192,4.578,-50.842,-63.599
0.005,0.463,-0.204,3.296,-57.068,-73.181
-0.008,0.490,-0.225,1.282,-60.364,-82.886
-0.014,0.513,-0.250,-0.183,-63.660,-92.041
-0.033,0.564,-0.268,-1.221,-64.392,-101.074
-0.036,0.599,-0.291,-0.671,-63.110,-109.619
-0.017,0.655,-0.301,-0.183,-58.594,-118.347
0.009,0.735,-0.295,1.221,-54.626,-126.404
0.053,0.807,-0.272,1.526,-51.819,-134.705
0.094,0.782,-0.292,0.732,-52.307,-140.015
0.031,0.810,-0.350,0.916,-43.396,-147.400
-0.038,0.917,-0.437,1.953,-42.480,-151.062
-0.174,0.934,-0.487,5.920,-37.537,-151.001
-0.213,0.933,-0.511,5.676,-35.095,-153.076
-0.214,0.946,-0.492,3.113,-32.654,-158.813
-0.183,0.989,-0.459,1.038,-27.039,-163.696
-0.106,1.064,-0.418,-0.244,-20.752,-169.312
-0.061,1.147,-0.381,-1.526,-12.695,-173.279
-0.061,1.155,-0.372,-2.380,-4.639,-176.575
0.002,1.136,-0.372,-8.484,0.305,-178.955
0.044,1.183,-0.401,-14.893,0.122,-181.030
0.067,1.196,-0.419,-20.569,-3.845,-181.702
0.107,1.234,-0.420,-24.536,-10.437,-180.786
0.154,1.263,-0.402,-30.518,-23.682,-177.429
0.161,1.299,-0.425,-33.997,-38.635,-173.096
0.124,1.369,-0.343,-37.720,-53.101,-167.664
0.024,1.379,-0.321,-39.124,-65.430,-161.499
-0.069,1.404,-0.294,-39.307,-72.388,-154.114
-0.126,1.394,-0.273,-41.138,-77.881,-149.902
-0.186,1.388,-0.268,-41.565,-79.163,-145.203
-0.214,1.396,-0.275,-39.063,-78.491,-139.465
-0.196,1.346,-0.316,-35.278,-77.515,-133.972
-0.143,1.291,-0.366,-31.677,-78.003,-128.357
-0.118,1.238,-0.442,-28.870,-78.918,-121.277
-0.143,1.200,-0.492,-26.489,-76.538,-113.647
-0.199,1.170,-0.518,-23.682,-71.594,-106.018
-0.274,1.163,-0.505,-20.874,-62.927,-98.083
-0.330,1.149,-0.466,-18.188,-50.842,-90.088
-0.353,1.098,-0.408,-15.137,-39.490,-82.214
-0.351,1.081,-0.346,-10.925,-29.358,-73.975
-0.337,1.073,-0.299,-8.301,-19.470,-65.796
-0.299,1.045,-0.277,-7.812,-11.780,-58.105
-0.239,1.029,-0.247,-6.714,-5.310,-50.598
-0.199,0.993,-0.226,-6.531,-1.465,-42.603
-0.179,0.982,-0.219,-6.287,0.305,-33.813
-0.166,0.980,-0.222,-5.493,0.732,-24.292
-0.159,0.974,-0.219,-4.333,-0.305,-13.672
-0.143,0.981,-0.225,-3.418,-2.808,-2.747
-0.128,0.993,-0.227,-1.831,-6.226,8.850
-0.132,1.001,-0.212,0.183,-8.606,19.836
-0.128,1.005,-0.218,0.854,-8.545,28.564
-0.098,0.999,-0.228,1.343,-7.568,34.485
-0.091,0.990,-0.225,0.977,-7.751,42.114
-0.086,0.944,-0.221,-0.488,-8.972,48.828
-0.109,0.946,-0.224,0.671,-12.329,55.603
-0.092,0.971,-0.259,0.671,-13.184,61.035
0.100,0.982,-0.261,2.014,-13.245,61.890
0.247,0.941,-0.245,3.845,-14.832,62.744
0.332,0.850,-0.303,1.770,-14.587,60.364
0.665,0.801,-0.430,0.183,-13.672,49.377
0.997,0.718,-0.381,1.648,-12.817,33.386
1.123,0.589,-0.430,-1.526,-15.015,23.560
0.946,0.631,-0.371,-4.761,-15.137,19.531
0.690,0.787,-0.256,-5.737,-17.395,20.325
0.397,0.952,-0.119,-3.967,-20.081,23.315
0.199,1.020,-0.178,-2.502,-24.719,30.151
0.176,1.120,-0.195,-1.038,-28.076,35.339
0.116,1.182,-0.220,-1.465,-24.902,38.879
0.279,1.173,-0.313,-4.639,-19.958,38.879
0.417,1.118,-0.309,-6.714,-14.893,36.255
0.383,1.103,-0.265,-9.766,-9.888,36.560
0.161,1.141,-0.309,-12.024,-7.385,42.358
0.078,1.142,-0.400,-14.160,-9.338,49.072
0.173,1.100,-0.478,-14.587,-10.498,49.988
0.288,1.075,-0.402,-10.559,-6.958,46.631

-0.068,1.090,-0.251,27.100,21.057,74.097
-0.090,1.024,-0.271,25.574,21.362,76.355
-0.058,1.063,-0.269,25.574,21.851,78.918
-0.026,1.027,-0.291,23.865,23.499,81.360
-0.036,1.015,-0.326,21.362,24.353,83.923
-0.092,1.030,-0.354,17.761,25.330,87.158
-0.068,1.055,-0.348,15.930,28.137,89.844
-0.138,1.092,-0.370,13.306,31.006,93.323
-0.116,1.152,-0.364,12.268,33.386,94.666
-0.087,1.155,-0.378,11.475,36.743,94.910
-0.095,1.147,-0.399,10.986,40.466,95.276
-0.087,1.106,-0.406,8.972,43.274,94.055
-0.210,1.094,-0.424,6.226,45.471,93.933
-0.296,1.114,-0.382,4.639,47.607,93.933
-0.372,1.166,-0.399,2.808,48.279,93.811
-0.262,1.157,-0.422,1.770,46.387,91.675
-0.127,1.158,-0.409,2.319,44.128,88.562
-0.062,1.062,-0.425,2.380,40.833,84.473
-0.048,0.976,-0.428,3.906,35.706,80.017
-0.140,0.897,-0.370,5.920,31.921,75.073
-0.271,0.840,-0.316,8.362,31.433,70.801
-0.302,0.758,-0.314,10.376,30.396,65.796
-0.331,0.643,-0.297,11.230,27.832,59.387
-0.384,0.510,-0.291,12.146,24.170,52.856
-0.458,0.463,-0.272,11.780,21.973,44.495
-0.513,0.473,-0.300,9.644,20.752,36.072
-0.420,0.515,-0.307,9.705,18.982,27.527
-0.254,0.614,-0.211,12.573,17.090,19.836
-0.435,0.625,-0.296,9.705,13.855,19.409
-0.251,0.599,-0.325,11.780,9.949,15.991
-0.052,0.472,-0.237,17.151,7.019,5.371
0.033,0.337,-0.167,20.020,5.676,-5.432
0.078,0.277,-0.121,20.447,1.770,-15.564
0.133,0.269,-0.129,19.775,-6.042,-24.597
0.104,0.355,-0.096,19.714,-11.353,-34.424
-0.005,0.401,-0.123,19.409,-13.123,-42.236
-0.033,0.446,-0.148,18.860,-18.188,-51.697
-0.015,0.439,-0.153,17.761,-24.719,-61.523
-0.003,0.433,-0.172,13.489,-33.691,-70.313
-0.001,0.445,-0.189,10.315,-42.725,-79.529
0.001,0.473,-0.200,7.568,-51.392,-88.318
-0.009,0.502,-0.209,4.089,-58.472,-96.741
-0.018,0.529,-0.215,2.441,-64.453,-104.797
-0.006,0.553,-0.230,0.916,-70.496,-112.244
0.004,0.579,-0.242,-1.770,-75.378,-119.995
0.004,0.615,-0.252,-4.211,-78.308,-128.235
0.024,0.653,-0.270,-6.775,-80.627,-136.780
0.035,0.720,-0.293,-7.507,-82.214,-145.142
0.025,0.770,-0.318,-9.888,-83.984,-152.100
0.013,0.826,-0.354,-12.512,-83.984,-157.532
-0.024,0.863,-0.379,-16.052,-84.839,-164.124
0.006,0.809,-0.385,-23.987,-87.585,-170.166
-0.120,0.898,-0.450,-22.644,-68.298,-183.716
-0.111,1.083,-0.501,-19.775,-57.800,-190.857
-0.120,1.139,-0.505,-9.766,-49.561,-183.899
-0.167,1.176,-0.509,-5.066,-41.626,-180.542
-0.172,1.156,-0.505,-10.132,-36.560,-186.768
-0.159,1.210,-0.508,-11.230,-30.029,-188.538
-0.121,1.244,-0.509,-15.015,-26.184,-190.613
-0.062,1.298,-0.509,-22.339,-24.231,-196.289
-0.045,1.354,-0.505,-28.687,-20.630,-199.402
-0.056,1.372,-0.488,-34.180,-17.212,-199.097
-0.073,1.381,-0.464,-37.170,-16.663,-197.205
-0.120,1.404,-0.470,-38.208,-17.090,-193.970
-0.177,1.459,-0.476,-34.851,-15.686,-188.110
-0.251,1.504,-0.460,-30.273,-10.193,-180.115
-0.287,1.534,-0.427,-25.696,-2.808,-172.424
-0.308,1.534,-0.390,-21.606,5.859,-165.527
-0.312,1.483,-0.348,-19.165,14.893,-159.180
-0.297,1.437,-0.299,-18.250,21.118,-151.306
-0.264,1.360,-0.267,-17.212,23.804,-141.785
-0.234,1.282,-0.264,-17.029,22.339,-130.920
-0.174,1.222,-0.264,-18.433,16.174,-119.507
-0.106,1.183,-0.264,-20.813,4.822,-107.849
-0.099,1.162,-0.244,-22.461,-8.728,-95.398
-0.113,1.126,-0.238,-24.475,-21.484,-83.374
-0.146,1.100,-0.231,-25.879,-33.569,-71.106
-0.206,1.085,-0.209,-25.879,-42.297,-58.960
-0.267,1.070,-0.199,-23.987,-46.570,-47.302
-0.293,1.062,-0.196,-21.973,-47.424,-35.767
-0.285,1.042,-0.190,-18.372,-48.523,-25.146
-0.262,1.022,-0.192,-15.564,-47.668,-15.625
-0.244,0.988,-0.209,-14.038,-47.302,-6.775
-0.246,0.966,-0.208,-13.550,-46.875,2.686
-0.253,0.960,-0.202,-12.817,-44.983,12.268
-0.266,0.983,-0.202,-10.925,-43.030,19.897
-0.254,0.992,-0.227,-9.277,-38.879,26.306
-0.241,0.962,-0.270,-9.521,-34.790,33.203
-0.190,0.976,-0.302,-7.690,-33.081,40.466
-0.202,0.976,-0.318,-6.531,-31.250,48.096
-0.230,0.973,-0.284,-6.104,-29.846,56.519
-0.253,0.932,-0.282,-4.028,-28.931,64.819
-0.065,0.953,-0.272,-1.465,-23.865,66.406
0.499,0.935,-0.295,0.549,-18.982,57.129
1.114,0.868,-0.180,4.761,-18.555,40.161
1.479,0.675,-0.196,2.563,-19.470,26.672
1.346,0.654,-0.151,0.000,-17.395,20.325
0.742,0.762,-0.122,-2.808,-19.226,27.710
0.257,0.957,-0.089,-4.822,-24.353,37.170
0.109,1.033,-0.240,-8.240,-36.560,43.823
0.139,1.125,-0.307,-11.597,-44.189,47.302
0.136,1.247,-0.301,-12.085,-38.391,47.729
0.162,1.286,-0.325,-9.888,-31.189,48.340
0.241,1.146,-0.489,-10.986,-26.917,48.523
0.254,1.052,-0.514,-9.949,-20.752,50.537
0.156,1.060,-0.499,-7.996,-13.977,52.368
0.160,1.014,-0.494,-6.165,-12.207,54.443
0.281,0.957,-0.495,-5.920,-14.893,55.908
0.324,0.910,-0.470,-4.700,-17.151,54.932
0.252,0.884,-0.398,-2.014,-17.029,52.917
0.176,0.841,-0.384,0.366,-13.916,49.133
0.130,0.835,-0.392,0.366,-11.230,45.471
0.148,0.851,-0.390,0.488,-10.254,41.687
0.147,0.864,-0.347,0.671,-9.155,38.940
0.194,0.890,-0.277,-0.061,-8.057,37.048
0.131,0.935,-0.255,-1.770,-3.601,36.865
0.250,0.962,-0.193,-1.160,0.427,34.058
0.281,0.947,-0.218,-3.113,2.808,32.654
0.220,0.913,-0.227,-5.615,3.113,32.898
0.193,0.913,-0.299,-6.775,2.991,32.471
0.159,0.877,-0.298,-7.629,4.028,30.762
0.300,0.888,-0.289,-7.019,5.493,28.198
0.276,0.858,-0.302,-8.911,6.470,26.550
0.251,0.875,-0.318,-9.827,6.226,25.879
0.179,0.893,-0.400,-10.925,6.409,25.208
0.207,0.922,-0.373,-9.521,7.812,23.926
0.061,0.931,-0.422,-10.071,10.315,25.330
0.245,0.931,-0.387,-7.446,11.536,22.766
0.252,0.882,-0.366,-7.446,15.381,19.714
0.222,0.890,-0.379,-6.592,18.250,17.212
0.251,0.903,-0.327,-5.615,20.142,15.259
-0.003,0.926,-0.428,-6.775,22.827,17.700
0.162,0.946,-0.374,-6.042,21.240,16.602
0.153,0.895,-0.458,-7.568,17.639,16.235
0.276,0.883,-0.401,-5.310,15.930,12.817
0.340,0.877,-0.393,-4.395,15.808,9.521
0.051,0.862,-0.363,-6.042,15.015,11.658
0.163,0.954,-0.403,-3.662,14.526,12.146
0.018,0.897,-0.421,-3.967,16.724,12.329
0.219,0.938,-0.386,-1.221,18.311,11.047
0.191,0.837,-0.388,-1.831,16.357,10.864
0.272,0.868,-0.397,-2.380,16.357,9.949
0.064,0.848,-0.405,-4.761,15.381,10.132
0.159,0.946,-0.385,-1.770,14.099,9.766
0.200,0.893,-0.371,-0.671,12.451,9.094
0.139,0.874,-0.373,-1.831,11.841,10.559
0.099,0.904,-0.422,-0.549,11.108,10.376
0.267,0.890,-0.372,1.038,11.902,8.728
0.064,0.884,-0.380,-0.671,11.353,12.146
0.189,0.896,-0.410,1.526,9.399,10.010
0.229,0.886,-0.372,2.197,9.155,9.949
0.046,0.914,-0.382,1.770,9.827,13.489
0.186,0.896,-0.390,3.418,12.268,11.841
0.140,0.885,-0.379,1.465,12.573,14.160
0.147,0.876,-0.377,0.061,12.085,16.357
0.165,0.895,-0.380,0.549,12.146,16.479
0.171,0.854,-0.360,0.244,11.536,16.357
0.028,0.905,-0.364,-0.122,11.536,18.372
0.046,0.902,-0.408,-0.793,12.756,16.724
0.237,0.885,-0.390,0.549,13.367,13.977
0.062,0.897,-0.385,-0.183,15.503,15.015
0.067,0.902,-0.388,0.488,17.883,13.550
0.121,0.937,-0.354,1.343,17.883,13.184
-0.056,0.906,-0.398,0.244,18.066,14.282
0.057,0.939,-0.391,1.221,21.362,12.085
0.094,0.896,-0.412,0.916,20.935,10.498
0.086,0.921,-0.367,1.038,22.461,8.972
0.052,0.925,-0.380,0.427,23.437,8.606
0.096,0.938,-0.370,0.977,21.301,8.362
0.112,0.906,-0.368,0.305,19.958,8.728
0.098,0.911,-0.367,0.549,18.433,9.033
0.034,0.891,-0.411,0.488,16.113,9.888
0.111,0.920,-0.426,2.991,17.456,8.301
0.086,0.902,-0.439,2.014,17.151,9.094
0.083,0.931,-0.407,4.211,19.775,9.888
0.039,0.883,-0.432,4.639,20.691,10.437
0.094,0.904,-0.411,4.578,21.973,10.925
0.020,0.898,-0.426,5.310,21.362,13.550
0.214,0.887,-0.407,5.798,21.606,13.062
0.095,0.911,-0.436,4.761,19.653,14.832
0.155,0.886,-0.430,4.944,18.494,15.564
0.005,0.968,-0.390,6.165,20.325,17.639
0.054,0.905,-0.408,5.859,19.348,18.433
0.046,0.974,-0.382,7.385,21.484,19.836
0.106,0.867,-0.394,5.615,22.644,19.226
0.102,0.905,-0.377,5.859,23.010,20.813
-0.012,0.895,-0.389,5.127,23.193,22.522
0.090,0.927,-0.380,5.981,21.118,23.865
-0.064,0.930,-0.423,6.104,20.752,27.405
0.040,0.929,-0.400,8.118,22.217,27.405
0.096,0.879,-0.452,7.690,22.217,29.053
0.074,0.898,-0.451,9.338,25.146,29.663
0.217,0.866,-0.415,7.935,25.024,31.128
-0.063,0.958,-0.387,8.179,24.231,36.621
-0.006,0.932,-0.313,7.263,22.827,39.185
0.019,1.011,-0.290,7.996,19.043,41.687
0.104,0.958,-0.327,7.935,19.348,39.734
0.099,0.914,-0.401,5.432,18.250,38.940
-0.170,1.077,-0.348,7.324,17.944,39.612
-0.132,0.973,-0.392,6.714,20.020,40.161
-0.093,1.059,-0.353,11.047,22.827,40.833
0.011,0.876,-0.415,9.277,24.536,40.222
0.065,0.949,-0.393,11.353,26.489,40.955
-0.151,0.949,-0.449,10.437,27.710,43.091
0.027,0.994,-0.423,12.207,27.283,43.091
0.032,1.004,-0.488,12.573,27.100,45.593
-0.194,1.068,-0.481,14.648,29.907,48.645
0.042,1.036,-0.365,15.198,32.715,46.448
-0.109,1.011,-0.363,14.771,35.217,48.645
-0.014,1.033,-0.250,18.494,37.964,48.462
0.054,0.966,-0.330,16.663,35.400,50.781
-0.087,1.117,-0.375,18.250,32.593,54.443
0.034,1.051,-0.413,16.418,30.029,54.749
-0.030,1.119,-0.438,17.639,28.076,57.861
-0.025,1.114,-0.371,18.982,28.381,58.472
0.026,1.046,-0.362,18.860,29.541,59.326
-0.130,1.146,-0.317,18.982,28.503,63.538
-0.027,1.136,-0.243,20.203,29.907,63.599
0.066,1.085,-0.246,19.775,30.090,65.002
0.005,1.142,-0.257,19.714,28.320,68.481
0.002,1.133,-0.278,19.775,26.062,70.862
-0.057,1.127,-0.306,18.433,23.926,73.120
-0.175,1.169,-0.337,19.348,26.062,75.073
-0.069,1.077,-0.326,19.470,30.762,73.669
-0.121,1.068,-0.346,17.700,36.438,73.853
-0.134,1.074,-0.362,16.785,43.884,74.158
-0.112,1.094,-0.381,16.602,49.683,76.294
-0.011,1.097,-0.384,15.198,50.476,79.163
0.013,1.049,-0.426,12.817,49.927,84.290
0.019,1.013,-0.418,9.277,46.448,90.698
-0.033,1.003,-0.438,5.920,43.091,95.398
-0.013,1.009,-0.429,2.563,36.194,96.863
-0.152,1.043,-0.440,-0.183,30.823,98.694
-0.255,1.070,-0.435,-2.136,27.893,99.792
-0.299,1.097,-0.456,-3.052,24.048,101.013
-0.320,1.125,-0.446,-4.211,21.667,100.403
-0.311,1.093,-0.467,-4.395,23.987,98.511
-0.212,1.030,-0.453,-2.747,27.222,94.910

0.161,0.907,-0.332,1.038,12.512,10.559
0.153,0.865,-0.379,0.732,9.949,9.399
-0.002,0.954,-0.360,0.793,10.925,10.193
0.101,0.906,-0.402,1.404,13.184,6.226
0.156,0.900,-0.365,1.404,14.221,6.714
-0.017,0.904,-0.390,1.221,13.916,9.094
0.230,0.886,-0.376,2.441,13.611,5.249
0.117,0.851,-0.364,-0.671,10.132,7.935
0.035,0.926,-0.369,0.488,10.986,8.606
0.190,0.881,-0.389,1.404,12.451,4.456
0.047,0.886,-0.369,-0.793,12.146,7.935
0.101,0.934,-0.345,1.404,13.977,6.836
0.098,0.895,-0.364,0.305,13.306,7.263
0.136,0.911,-0.354,0.366,10.742,8.667
0.087,0.932,-0.380,1.099,11.108,8.850
0.219,0.865,-0.380,0.793,10.620,8.484
0.045,0.924,-0.377,-0.793,8.423,12.024
0.041,0.915,-0.408,1.038,9.583,11.902
0.252,0.881,-0.394,1.221,11.597,9.949
0.105,0.900,-0.415,0.122,11.047,11.902
0.100,0.912,-0.396,1.587,12.329,12.024
0.132,0.954,-0.354,2.747,12.878,13.550
-0.048,0.915,-0.422,1.526,14.099,15.869
0.097,0.950,-0.390,4.700,15.930,15.503
0.120,0.893,-0.406,3.235,16.602,16.479
0.101,0.907,-0.385,2.808,18.250,16.663
0.068,0.929,-0.359,3.967,17.151,17.578
0.082,0.950,-0.352,4.578,17.395,17.578
0.061,0.906,-0.398,2.869,17.700,17.395
0.068,0.944,-0.381,2.869,18.250,17.700
0.006,0.932,-0.392,4.028,18.311,18.494
0.109,0.908,-0.383,5.066,17.700,17.212
0.042,0.893,-0.402,4.150,15.869,18.188
0.074,0.892,-0.406,4.272,14.771,17.395
0.021,0.920,-0.413,3.113,13.306,17.578
0.049,0.921,-0.397,2.930,13.550,18.250
-0.021,0.973,-0.387,5.066,15.564,19.470
0.113,0.853,-0.408,3.906,17.456,17.883
0.118,0.934,-0.377,4.761,18.372,18.677
-0.008,0.880,-0.416,4.639,17.761,19.592
0.072,0.955,-0.331,6.042,16.846,20.508
-0.045,0.947,-0.369,4.761,16.174,22.644
0.105,0.914,-0.343,5.249,19.104,21.118
0.044,0.932,-0.380,4.578,18.066,22.461
0.052,0.900,-0.394,5.920,17.700,23.499
-0.030,0.967,-0.382,7.935,18.127,25.085
0.012,0.887,-0.401,7.324,17.822,27.405
-0.087,0.987,-0.345,9.216,18.005,30.518
0.120,0.866,-0.372,10.010,17.944,30.151
0.080,0.922,-0.392,9.094,15.320,33.203
0.196,0.915,-0.366,8.118,15.564,32.288
-0.049,0.942,-0.435,5.859,14.465,34.851
-0.121,1.033,-0.324,8.789,13.550,36.316
-0.115,1.024,-0.328,11.536,13.855,39.490
0.030,0.901,-0.357,12.939,15.137,37.781
0.210,0.866,-0.353,10.132,13.672,37.720
-0.220,0.894,-0.435,7.935,13.062,42.358
-0.061,0.955,-0.273,11.230,16.357,41.687
-0.140,1.050,-0.328,13.611,16.479,44.617
0.047,0.970,-0.362,15.320,16.907,45.349
0.104,0.990,-0.495,15.808,15.747,47.729
-0.059,0.963,-0.532,12.024,12.451,48.462
-0.110,1.112,-0.417,14.404,14.465,48.950
0.037,1.081,-0.340,15.137,19.653,49.561
-0.154,1.051,-0.334,14.038,20.569,52.734
0.045,1.056,-0.239,16.174,21.423,52.612
-0.017,1.028,-0.363,14.587,20.081,56.946
-0.027,1.141,-0.335,15.381,17.822,57.495
0.097,1.089,-0.432,14.465,16.357,59.265
-0.113,1.206,-0.437,16.296,18.127,62.561
0.037,1.108,-0.397,16.846,19.043,63.171
-0.030,1.143,-0.403,17.273,20.325,66.772
-0.030,1.140,-0.325,17.395,24.414,68.787
0.070,1.078,-0.305,16.541,27.527,70.923
-0.115,1.183,-0.339,15.198,27.039,76.050
-0.040,1.227,-0.276,17.578,29.419,77.698
0.110,1.188,-0.319,18.616,31.433,79.712
0.054,1.200,-0.349,18.677,31.799,84.595
0.004,1.220,-0.343,19.836,34.790,88.318
0.027,1.236,-0.322,18.616,35.339,92.468
-0.041,1.237,-0.370,18.005,36.743,97.412
0.059,1.203,-0.369,18.127,38.818,100.403
0.133,1.152,-0.389,13.916,42.603,105.103
0.133,1.084,-0.375,10.315,44.739,109.253
-0.005,1.115,-0.380,5.981,44.739,111.267
-0.066,1.202,-0.345,4.395,44.067,111.206
-0.083,1.243,-0.376,4.333,41.077,110.474
-0.105,1.218,-0.365,4.333,37.720,110.962
-0.197,1.237,-0.351,5.798,33.875,111.694
-0.193,1.198,-0.392,6.409,28.870,110.596
-0.148,1.197,-0.436,6.042,20.325,108.459
-0.135,1.178,-0.399,7.996,16.541,104.614
-0.166,1.113,-0.380,10.986,18.799,98.083
-0.161,1.010,-0.368,15.625,23.254,89.417
-0.120,0.878,-0.393,19.287,24.414,79.956
-0.077,0.820,-0.296,24.719,25.024,70.557
-0.200,0.726,-0.241,29.114,28.198,60.913
-0.316,0.629,-0.221,31.494,30.640,52.734
-0.523,0.545,-0.268,30.151,27.710,47.729
-0.531,0.461,-0.339,28.870,16.907,43.335
-0.331,0.386,-0.395,25.940,3.235,35.645
-0.184,0.416,-0.397,22.522,-5.676,28.687
-0.114,0.419,-0.403,19.348,-12.695,23.010
-0.051,0.403,-0.380,17.212,-19.958,16.968
-0.027,0.345,-0.352,16.541,-26.428,9.399
-0.012,0.297,-0.331,16.663,-31.799,1.404
-0.001,0.284,-0.266,17.639,-34.241,-8.423
-0.051,0.290,-0.200,19.409,-33.875,-19.897
-0.138,0.295,-0.159,19.348,-30.212,-30.701
-0.170,0.317,-0.156,18.677,-26.611,-42.114
-0.181,0.341,-0.159,18.555,-21.790,-54.382
-0.183,0.362,-0.137,19.958,-18.250,-65.247
-0.181,0.360,-0.125,19.226,-16.296,-74.341
-0.157,0.346,-0.140,17.944,-17.456,-83.435
-0.128,0.334,-0.165,14.771,-20.874,-91.736
-0.097,0.339,-0.190,11.902,-26.001,-100.769
-0.082,0.377,-0.195,7.935,-31.189,-109.131
-0.042,0.413,-0.202,5.127,-36.560,-117.554
0.015,0.462,-0.198,1.770,-43.640,-125.244
0.043,0.512,-0.198,-1.831,-51.880,-132.996
0.056,0.568,-0.203,-4.639,-59.753,-139.832
0.071,0.625,-0.201,-6.592,-66.223,-146.973
0.061,0.696,-0.195,-7.629,-71.594,-154.419
0.085,0.783,-0.178,-7.446,-75.500,-161.987
0.067,0.874,-0.224,-7.507,-77.332,-169.861
0.051,0.928,-0.252,-8.362,-76.538,-176.331
0.002,0.934,-0.280,-13.123,-77.698,-182.251
-0.101,0.918,-0.401,-25.635,-87.036,-187.195
-0.207,1.041,-0.478,-22.766,-78.735,-195.862
-0.221,1.132,-0.502,-20.264,-76.050,-205.322
-0.187,1.238,-0.486,-3.967,-72.021,-194.092
-0.108,1.319,-0.484,3.113,-75.134,-186.523
-0.046,1.315,-0.480,0.488,-80.627,-187.439
-0.044,1.354,-0.505,1.892,-78.308,-184.814
-0.099,1.369,-0.524,-3.845,-77.515,-189.880
-0.160,1.417,-0.538,-8.362,-71.350,-195.618
-0.163,1.441,-0.551,-12.329,-63.721,-196.960
-0.152,1.491,-0.532,-14.404,-56.519,-194.946
-0.132,1.524,-0.531,-15.808,-51.392,-190.674
-0.151,1.571,-0.539,-14.771,-47.363,-183.716
-0.197,1.557,-0.548,-12.329,-41.260,-172.302
-0.257,1.475,-0.557,-11.169,-33.447,-161.011
-0.317,1.422,-0.468,-12.695,-25.269,-151.550
-0.340,1.358,-0.437,-16.785,-18.311,-143.799
-0.368,1.341,-0.417,-20.386,-13.062,-134.949
-0.387,1.312,-0.391,-21.484,-8.301,-125.244
-0.394,1.285,-0.353,-20.386,-2.991,-114.136
-0.366,1.229,-0.323,-18.555,0.854,-102.234
-0.370,1.203,-0.288,-16.663,3.784,-88.928
-0.389,1.157,-0.245,-14.221,7.874,-76.294
-0.373,1.113,-0.229,-11.719,9.888,-63.171
-0.340,1.078,-0.203,-10.132,10.071,-51.453
-0.294,1.062,-0.184,-8.240,9.705,-40.161
-0.263,1.048,-0.172,-5.737,8.240,-28.198
-0.269,1.046,-0.156,-2.747,6.348,-16.357
-0.301,1.047,-0.139,0.366,5.615,-5.615
-0.315,1.053,-0.128,3.418,6.042,4.456
-0.281,1.052,-0.163,5.859,5.188,15.137
-0.243,1.065,-0.193,6.714,2.686,24.597
-0.267,1.043,-0.198,7.385,1.099,33.752
-0.272,1.027,-0.225,7.874,-0.305,42.542
-0.328,0.976,-0.244,7.629,-0.793,51.941
-0.322,0.989,-0.282,7.690,1.404,59.937
-0.127,0.999,-0.275,9.399,5.005,62.744
0.366,0.969,-0.316,10.620,5.798,56.519
1.072,0.859,-0.376,11.597,1.831,39.673
1.457,0.620,-0.490,7.324,-5.127,24.292
1.365,0.521,-0.527,-0.977,-8.606,15.503
0.861,0.642,-0.342,-4.883,-9.827,15.076
0.363,0.843,-0.253,-4.761,-17.456,23.376
0.178,1.000,-0.315,-3.662,-29.297,33.752
0.079,1.148,-0.380,-6.042,-38.269,42.603
0.008,1.265,-0.451,-7.507,-38.330,47.668
0.243,1.265,-0.417,-4.822,-33.997,44.922
0.432,1.122,-0.317,-2.441,-26.672,40.161
0.271,1.036,-0.209,-2.930,-16.663,40.100
0.054,1.077,-0.208,-4.028,-8.423,44.312
-0.079,1.123,-0.271,-5.554,-4.089,48.157
0.071,1.147,-0.248,-4.761,0.244,47.180
0.259,1.070,-0.228,-3.296,4.700,43.823
0.306,0.921,-0.242,-4.089,7.202,41.565
0.183,0.842,-0.376,-6.470,7.141,40.039
0.198,0.868,-0.401,-5.066,5.554,35.645
0.129,0.863,-0.384,-4.883,4.150,32.532
0.241,0.864,-0.384,-3.662,4.150,28.992
0.288,0.833,-0.304,-3.235,3.662,26.367
0.184,0.820,-0.374,-4.333,5.249,26.001
0.302,0.872,-0.288,-1.770,7.751,21.606
0.116,0.849,-0.283,-3.418,11.963,20.813
0.219,0.921,-0.268,-3.662,14.526,19.043
0.249,0.912,-0.295,-5.493,13.489,18.250
0.261,0.915,-0.303,-7.874,10.925,19.409
0.395,0.918,-0.274,-8.545,8.301,19.165
0.222,0.858,-0.297,-12.695,7.874,22.217
0.140,0.919,-0.339,-13.916,8.850,25.208
0.349,0.926,-0.350,-11.780,8.057,22.034
0.329,0.873,-0.329,-12.085,8.301,21.851
0.253,0.898,-0.377,-11.841,10.193,23.437
0.226,0.913,-0.392,-9.888,12.146,23.499
0.099,0.904,-0.413,-9.216,15.015,25.452
0.155,0.943,-0.456,-6.348,18.250,25.513
0.279,0.899,-0.411,-4.456,19.775,24.292
0.262,0.925,-0.391,-1.526,22.644,25.696
0.200,0.885,-0.426,-0.549,22.949,26.672
0.165,0.912,-0.419,1.282,22.888,27.344
0.231,0.949,-0.390,5.188,24.109,25.879
0.228,0.891,-0.382,6.531,20.447,26.428
0.187,0.906,-0.355,7.690,18.677,26.733
0.120,0.917,-0.365,7.324,16.418,26.184
0.198,0.908,-0.336,7.507,15.808,23.743
0.125,0.901,-0.323,6.897,13.672,22.705
0.177,0.874,-0.322,7.568,11.597,20.874
0.104,0.883,-0.327,6.104,9.644,20.325
0.141,0.897,-0.320,5.066,7.812,17.578
0.015,0.911,-0.329,3.601,6.531,16.113
0.159,0.921,-0.294,4.944,9.155,11.353
0.062,0.885,-0.359,2.441,9.033,9.521
0.212,0.897,-0.322,2.258,8.789,6.653
0.039,0.917,-0.369,0.671,7.629,8.118
0.142,0.907,-0.316,1.465,7.019,5.127
0.035,0.899,-0.351,-0.427,4.150,6.104
0.185,0.915,-0.320,0.549,5.066,3.174
0.142,0.892,-0.359,-0.793,4.761,2.380
0.141,0.910,-0.345,-1.648,3.967,1.404
0.041,0.931,-0.365,-1.892,3.845,1.709
0.144,0.935,-0.332,-1.282,4.578,-0.122
-0.012,0.917,-0.348,-2.563,3.784,2.380
0.110,0.928,-0.341,-1.160,3.906,0.916
0.204,0.883,-0.365,-1.282,3.845,0.000
0.173,0.880,-0.365,-2.136,2.869,1.160
0.249,0.901,-0.371,-1.343,2.686,-0.549
0.091,0.878,-0.393,-3.357,0.427,2.380
0.081,0.957,-0.383,-1.587,-0.488,3.662
0.012,0.925,-0.411,-0.366,-1.343,6.104
0.178,0.927,-0.341,2.014,-1.160,6.470
0.214,0.860,-0.386,2.014,-1.099,6.958
0.211,0.835,-0.333,-0.183,-0.061,8.179
0.008,0.957,-0.352,-1.038,1.099,10.742

0.222,0.828,-0.368,-9.338,-10.986,27.222
0.180,0.840,-0.367,-9.888,-13.062,27.649
0.122,0.905,-0.348,-10.498,-12.085,28.015
-0.002,0.962,-0.346,-10.132,-9.277,28.381
0.081,1.008,-0.337,-7.690,-4.517,26.245
0.064,0.977,-0.338,-5.981,-1.160,26.001
0.076,0.979,-0.321,-4.028,3.662,24.719
0.032,0.932,-0.354,-3.357,7.385,23.743
0.072,0.963,-0.331,-2.747,13.367,23.193
0.025,0.940,-0.337,-2.380,14.038,23.499
0.224,0.940,-0.331,-0.122,14.099,21.362
0.121,0.900,-0.389,-0.671,14.404,21.362
0.212,0.931,-0.386,0.854,13.733,20.081
0.038,0.940,-0.408,0.061,12.573,22.888
0.156,0.914,-0.379,1.465,13.428,21.240
0.037,0.914,-0.387,1.709,12.695,22.339
0.183,0.889,-0.354,3.174,11.780,20.813
0.113,0.907,-0.352,2.075,12.756,20.935
0.109,0.905,-0.362,2.075,14.465,19.531
0.075,0.947,-0.367,0.732,13.367,20.935
0.112,0.916,-0.369,1.587,11.475,21.729
-0.025,0.953,-0.368,2.136,9.644,23.926
0.119,0.916,-0.375,4.333,10.803,20.142
0.110,0.914,-0.390,3.418,10.742,19.653
0.120,0.923,-0.397,4.639,12.146,18.311
0.116,0.875,-0.414,4.272,14.465,17.639
-0.042,0.959,-0.399,4.272,13.611,21.362
-0.004,0.902,-0.388,5.676,14.709,22.278
0.098,0.944,-0.361,6.348,17.151,23.926
0.166,0.888,-0.379,6.592,17.944,22.705
0.224,0.856,-0.398,4.883,18.494,24.414
-0.044,1.006,-0.357,6.775,19.226,28.198
0.037,0.875,-0.389,7.019,19.287,29.114
0.059,1.000,-0.381,9.155,19.775,32.227
0.074,0.877,-0.417,8.118,21.118,31.494
0.147,0.938,-0.387,8.972,21.545,31.799
-0.071,0.920,-0.416,7.996,22.034,34.668
0.081,0.962,-0.360,10.254,22.766,34.729
0.130,0.933,-0.403,9.705,21.912,36.804
-0.099,0.981,-0.421,10.193,23.987,40.283
0.153,0.980,-0.350,11.841,25.635,39.734
0.025,0.911,-0.388,10.010,27.039,43.945
0.006,0.961,-0.275,10.620,29.846,44.678
0.180,0.904,-0.253,8.118,26.855,47.180
-0.036,1.012,-0.296,8.545,25.208,50.659
0.080,0.964,-0.303,7.263,23.499,51.025
0.023,1.054,-0.322,8.728,20.935,54.565
-0.035,1.008,-0.321,8.911,21.118,56.580
0.128,1.011,-0.284,10.620,22.888,56.274
-0.034,1.044,-0.340,8.850,18.799,60.181
-0.066,1.115,-0.349,10.864,16.113,61.035
0.197,1.062,-0.474,9.033,16.113,60.059
-0.023,1.171,-0.508,10.254,15.564,61.768
-0.066,1.171,-0.477,11.841,17.151,61.707
0.001,1.208,-0.458,15.930,20.081,62.500
-0.106,1.238,-0.482,19.043,24.231,64.880
0.045,1.157,-0.467,19.531,27.405,64.941
-0.003,1.201,-0.460,18.372,29.297,67.322
0.006,1.218,-0.394,18.494,33.569,68.054
-0.036,1.210,-0.360,18.616,37.292,70.068
0.011,1.205,-0.284,19.653,42.786,71.045
-0.005,1.173,-0.270,20.142,46.143,73.914
-0.017,1.122,-0.233,20.813,47.729,77.881
-0.003,1.140,-0.214,21.667,47.180,82.336
0.100,1.070,-0.234,21.790,45.410,85.510
0.082,1.105,-0.282,21.606,41.321,90.637
0.077,1.100,-0.314,20.264,36.682,94.543
0.020,1.102,-0.362,18.799,33.936,97.534
0.006,1.080,-0.380,14.771,31.860,100.281
-0.021,1.081,-0.405,11.475,33.264,102.356
0.009,1.037,-0.354,8.789,35.522,103.638
-0.025,1.047,-0.358,7.141,37.781,105.164
-0.109,1.072,-0.378,5.371,38.879,104.980
-0.159,1.134,-0.354,6.104,37.842,104.797
-0.197,1.155,-0.377,6.653,36.560,104.126
-0.184,1.207,-0.385,8.911,32.166,104.187
-0.161,1.165,-0.411,10.620,25.940,103.699
-0.130,1.164,-0.419,13.367,21.667,102.356
-0.081,1.085,-0.462,15.198,16.785,99.915
-0.067,1.007,-0.455,16.785,13.184,97.046
-0.097,0.913,-0.454,16.968,11.597,93.201
-0.103,0.832,-0.460,16.602,8.484,87.463
-0.109,0.739,-0.438,16.663,5.249,79.895
-0.206,0.625,-0.409,16.541,2.991,70.923
-0.395,0.493,-0.353,16.724,3.052,62.805
-0.411,0.487,-0.328,17.273,3.235,51.147
-0.256,0.507,-0.294,20.142,3.235,34.546
-0.128,0.549,-0.257,21.912,3.052,19.348
-0.237,0.564,-0.265,21.179,3.174,10.071
-0.146,0.516,-0.258,23.010,3.357,1.282
0.003,0.363,-0.214,25.635,3.174,-10.864
0.142,0.232,-0.183,26.489,1.526,-23.682
0.189,0.186,-0.183,25.818,-1.953,-35.828
0.156,0.228,-0.156,24.170,-3.723,-47.058
0.130,0.279,-0.135,23.560,-6.775,-56.763
0.085,0.311,-0.147,20.508,-14.282,-64.697
0.044,0.335,-0.158,16.235,-23.132,-73.486
0.033,0.346,-0.161,12.634,-29.419,-83.313
0.034,0.354,-0.156,9.277,-37.109,-95.215
0.028,0.381,-0.156,5.310,-43.396,-107.239
0.027,0.416,-0.160,1.099,-48.523,-117.737
0.044,0.445,-0.174,-2.991,-54.016,-127.014
0.052,0.494,-0.171,-6.409,-58.350,-136.169
0.084,0.535,-0.190,-9.705,-62.012,-145.386
0.084,0.616,-0.202,-12.390,-63.782,-154.236
0.083,0.712,-0.227,-14.282,-64.392,-163.025
0.066,0.837,-0.224,-15.808,-65.308,-170.471
0.039,0.896,-0.230,-16.968,-64.819,-176.025
-0.067,0.937,-0.271,-21.545,-60.669,-184.204
-0.097,0.977,-0.350,-21.851,-56.824,-187.378
-0.223,1.023,-0.427,-21.545,-37.415,-207.886
-0.159,1.170,-0.499,-17.395,-32.471,-210.022
-0.123,1.256,-0.528,-8.789,-26.978,-202.332
-0.175,1.309,-0.498,-5.981,-23.926,-197.754
-0.248,1.378,-0.436,-5.859,-18.188,-195.557
-0.248,1.374,-0.391,-8.667,-19.348,-195.862
-0.235,1.387,-0.385,-11.841,-21.118,-191.223
-0.212,1.368,-0.431,-19.592,-25.146,-189.148
-0.160,1.432,-0.415,-26.245,-27.832,-187.622
-0.130,1.415,-0.404,-31.860,-30.151,-183.289
-0.134,1.410,-0.391,-36.255,-32.043,-175.232
-0.219,1.424,-0.378,-37.231,-35.217,-164.978
-0.389,1.431,-0.380,-34.424,-35.950,-154.480
-0.588,1.435,-0.366,-29.541,-30.945,-142.761
-0.713,1.438,-0.331,-23.010,-22.644,-130.127
-0.728,1.414,-0.306,-17.395,-14.832,-116.272
-0.655,1.369,-0.310,-13.367,-8.911,-102.966
-0.584,1.292,-0.272,-12.329,-4.700,-90.088
-0.535,1.227,-0.268,-12.329,-4.639,-76.111
-0.531,1.196,-0.246,-12.451,-5.798,-61.768
-0.537,1.164,-0.224,-11.719,-7.263,-46.875
-0.531,1.159,-0.219,-10.254,-9.338,-31.250
-0.546,1.133,-0.215,-8.301,-12.024,-15.442
-0.575,1.118,-0.218,-6.653,-12.634,-1.038
-0.554,1.114,-0.224,-4.822,-12.146,11.353
-0.523,1.123,-0.238,-2.808,-12.878,24.170
-0.502,1.116,-0.237,-1.343,-14.160,35.339
-0.467,1.100,-0.217,-0.244,-15.564,44.556
-0.409,1.079,-0.213,0.977,-17.761,52.490
-0.387,1.031,-0.211,2.930,-18.250,58.228
-0.246,0.966,-0.207,4.395,-17.822,59.204
0.057,0.855,-0.240,5.066,-16.541,52.002
0.631,0.665,-0.540,0.244,-20.325,32.715
1.032,0.618,-0.490,-4.272,-24.658,13.733
0.869,0.718,-0.451,-7.141,-26.978,7.690
0.498,1.048,-0.227,-6.592,-25.024,11.536
0.037,1.440,-0.148,-4.456,-25.513,23.499
-0.237,1.678,-0.212,-2.380,-26.733,35.767
-0.145,1.631,-0.350,-1.892,-25.574,40.955
0.236,1.352,-0.351,-0.122,-18.250,38.025
0.317,1.084,-0.175,0.610,-7.202,33.508
0.060,0.975,-0.137,-0.122,2.075,33.142
-0.046,0.952,-0.180,-0.488,5.554,32.349
0.134,0.927,-0.319,-1.770,3.174,28.259
0.280,0.879,-0.371,-2.625,0.000,21.973
0.296,0.802,-0.377,-3.235,-1.343,18.372
0.078,0.761,-0.489,-5.066,-2.136,19.287
0.146,0.808,-0.530,-2.686,-2.319,15.076
0.149,0.798,-0.480,-0.671,0.183,10.925
0.106,0.815,-0.424,0.305,4.456,10.437
0.281,0.837,-0.297,0.732,7.568,7.080
0.100,0.858,-0.286,-0.305,11.963,8.789
0.312,0.904,-0.281,0.000,11.108,7.751
0.283,0.874,-0.255,-3.601,10.132,8.789
0.277,0.936,-0.267,-5.920,7.874,10.742
0.258,0.905,-0.271,-7.263,3.723,11.475
0.260,0.927,-0.283,-9.033,0.916,13.611
0.245,0.905,-0.328,-9.338,-1.221,13.855
0.228,0.878,-0.326,-11.353,-0.244,13.855
0.064,0.931,-0.388,-11.414,2.747,16.846
0.125,0.919,-0.453,-9.277,4.456,15.259
0.319,0.933,-0.394,-7.874,9.644,12.329
0.138,0.914,-0.406,-6.104,12.512,12.085
0.128,0.914,-0.415,-4.761,12.512,9.583
0.155,0.943,-0.396,-4.272,13.855,8.423
0.052,0.955,-0.419,-1.892,13.489,9.033
0.281,0.945,-0.359,0.183,13.306,5.859
0.219,0.912,-0.336,-0.610,12.207,7.812
0.169,0.914,-0.336,-0.427,12.390,8.484
0.142,0.915,-0.359,-1.465,13.977,7.690
0.228,0.911,-0.331,0.061,12.756,7.263
0.183,0.873,-0.342,-0.610,13.367,7.996
0.202,0.863,-0.344,-1.221,13.306,8.057
0.138,0.855,-0.356,-1.587,13.245,8.728
0.251,0.843,-0.372,-0.671,13.489,7.751
0.153,0.846,-0.383,-2.319,14.832,9.094
0.220,0.856,-0.379,-2.563,15.625,8.850
0.162,0.873,-0.373,-1.587,15.503,10.315
0.172,0.885,-0.365,-1.038,16.235,10.620
0.058,0.916,-0.366,-0.732,16.663,12.817
0.248,0.889,-0.358,0.549,18.677,11.047
0.106,0.935,-0.354,1.038,21.851,12.695
0.180,0.900,-0.353,1.160,24.231,11.292
0.114,0.966,-0.324,1.831,25.085,13.977
0.165,0.895,-0.358,1.770,24.292,14.343
0.148,0.942,-0.352,3.113,22.644,17.029
0.226,0.879,-0.384,4.272,20.630,15.869
0.166,0.930,-0.360,5.676,20.813,16.541
0.104,0.909,-0.382,5.493,19.409,17.090
0.121,0.957,-0.369,6.348,19.226,18.372
0.068,0.910,-0.399,4.395,18.860,18.860
0.028,0.990,-0.349,6.042,17.761,19.897
0.179,0.882,-0.386,6.714,17.273,17.578
0.151,0.895,-0.382,5.310,15.503,18.555
0.226,0.880,-0.359,5.493,14.648,15.686
0.117,0.863,-0.390,3.296,13.062,17.517
-0.003,0.957,-0.322,2.869,13.794,18.616
0.022,0.916,-0.365,2.808,10.559,19.836
0.156,0.933,-0.339,4.578,9.094,20.020
0.192,0.895,-0.384,3.296,10.010,17.456
0.148,0.837,-0.423,0.305,7.996,17.517
-0.035,1.000,-0.320,2.991,8.179,18.738
-0.011,0.857,-0.403,1.343,9.338,18.738
0.066,0.951,-0.339,3.052,10.559,19.226
0.109,0.852,-0.395,1.953,10.376,18.677
0.157,0.922,-0.354,2.747,10.986,19.226
-0.015,0.888,-0.414,1.709,11.230,20.996
0.075,0.963,-0.340,4.028,11.841,21.484
0.170,0.909,-0.356,4.700,9.033,22.949
0.003,0.892,-0.383,5.005,6.897,26.367
0.051,0.945,-0.297,5.615,7.019,24.719
0.111,0.862,-0.379,2.075,5.127,25.879
-0.038,0.949,-0.365,3.235,4.028,27.832
0.159,0.871,-0.372,3.723,4.761,27.100
0.022,0.858,-0.439,1.953,4.639,29.358
0.122,0.931,-0.341,3.235,2.075,30.762
0.114,0.859,-0.427,2.014,-0.671,34.668
0.066,0.891,-0.389,1.526,-2.258,36.499
0.039,0.927,-0.357,0.610,-2.380,37.109
0.138,0.876,-0.371,1.099,-6.714,38.269
-0.083,0.991,-0.368,1.709,-8.301,40.649
-0.076,0.993,-0.354,3.052,-3.967,36.438
0.035,0.968,-0.365,3.967,3.418,33.020
-0.056,1.015,-0.387,5.066,6.714,32.532
-0.004,0.979,-0.362,7.324,8.179,32.349
0.074,0.967,-0.368,9.827,10.986,33.752
-0.153,0.981,-0.406,10.071,14.099,37.537
0.070,0.932,-0.398,10.254,14.282,38.269

0.249,0.889,-0.341,-0.732,-0.122,37.109
0.165,0.863,-0.371,-0.366,3.418,35.095
0.320,0.856,-0.322,0.366,4.517,30.884
0.192,0.856,-0.309,-1.526,7.629,30.762
0.260,0.919,-0.250,-2.258,8.789,29.846
0.264,0.906,-0.225,-5.432,8.057,29.297
0.263,0.928,-0.248,-6.653,6.897,30.334
0.390,0.920,-0.276,-6.409,6.226,27.954
0.255,0.870,-0.286,-10.254,5.981,28.992
0.151,0.912,-0.346,-12.146,4.822,31.616
0.306,0.902,-0.385,-10.620,4.639,28.564
0.275,0.841,-0.337,-11.536,10.498,26.306
0.251,0.858,-0.388,-9.827,13.611,27.588
0.250,0.853,-0.437,-10.925,14.832,28.992
0.196,0.896,-0.414,-11.292,16.785,31.067
0.187,0.946,-0.431,-6.775,16.846,31.555
0.256,0.894,-0.414,-3.540,17.822,28.259
0.220,0.884,-0.410,-2.930,18.372,25.452
0.178,0.905,-0.378,-2.014,18.372,23.315
0.124,0.925,-0.385,-1.709,20.691,20.203
0.224,0.936,-0.382,-0.549,20.691,16.357
0.197,0.902,-0.383,-1.282,20.508,14.771
0.202,0.904,-0.398,-1.343,19.714,12.756
0.094,0.925,-0.415,-1.404,19.836,11.658
0.224,0.923,-0.398,1.465,23.376,8.423
0.133,0.884,-0.381,1.648,25.635,7.446
0.193,0.886,-0.392,3.418,25.085,5.615
0.130,0.872,-0.394,3.479,26.062,4.822
0.162,0.863,-0.376,3.662,26.184,3.113
0.151,0.838,-0.363,2.502,25.269,3.113
0.213,0.886,-0.341,3.113,23.926,1.587
0.226,0.822,-0.363,0.366,20.569,0.183
0.214,0.920,-0.343,1.221,20.081,0.061
0.171,0.837,-0.377,-0.671,17.578,-0.977
0.141,0.906,-0.355,-0.977,18.372,-0.244
