aX,aY,aZ,gX,gY,gZ
0.092,0.562,-0.225,-11.169,-86.243,-171.082
0.098,0.628,-0.253,-14.038,-88.196,-180.420
0.082,0.710,-0.279,-16.174,-88.501,-190.369
0.033,0.823,-0.325,-17.456,-86.670,-200.562
0.006,0.900,-0.366,-16.113,-82.703,-205.383
-0.009,0.896,-0.409,-17.822,-77.271,-212.585
-0.011,0.984,-0.500,-17.151,-70.862,-218.140
-0.052,1.100,-0.575,-13.977,-62.439,-222.351
-0.110,1.161,-0.602,-12.634,-52.429,-228.333
-0.156,1.236,-0.597,-14.038,-42.175,-234.009
-0.179,1.311,-0.601,-18.372,-34.302,-241.516
-0.117,1.374,-0.610,-22.949,-28.076,-247.803
-0.040,1.413,-0.631,-28.198,-23.315,-253.479
0.130,1.473,-0.619,-35.706,-24.780,-257.996
0.112,1.517,-0.605,-44.861,-29.175,-260.742
0.107,1.602,-0.596,-54.749,-36.926,-261.353
0.012,1.692,-0.596,-62.500,-44.983,-261.353
-0.138,1.798,-0.585,-63.477,-48.279,-259.094
-0.297,1.813,-0.531,-58.044,-42.847,-251.831
-0.395,1.786,-0.440,-49.072,-28.748,-235.474
-0.422,1.734,-0.414,-41.870,-12.268,-222.351
-0.452,1.722,-0.394,-36.255,5.371,-213.013
-0.447,1.697,-0.379,-30.945,16.296,-201.599
-0.438,1.594,-0.361,-26.978,21.667,-186.218
-0.381,1.493,-0.327,-26.794,15.320,-171.448
-0.419,1.393,-0.318,-26.489,8.667,-156.128
-0.516,1.350,-0.284,-25.146,4.089,-137.878
-0.672,1.326,-0.242,-24.292,0.916,-118.652
-0.875,1.307,-0.203,-22.034,4.639,-95.886
-0.972,1.249,-0.206,-16.357,13.306,-68.359
-0.921,1.184,-0.088,-9.033,22.400,-36.255
-0.722,1.128,-0.078,-3.723,26.611,-4.578
-0.490,1.106,-0.132,-2.808,23.926,22.278
-0.325,1.055,-0.185,-6.042,11.230,42.664
-0.237,1.039,-0.231,-10.254,-1.831,55.664
-0.178,1.099,-0.154,-12.756,-14.832,66.650
-0.173,1.079,-0.096,-13.000,-30.823,78.918
-0.268,1.110,-0.025,-9.399,-43.213,92.285
-0.137,1.046,-0.072,-7.446,-55.054,102.966
0.290,0.944,-0.198,-8.118,-67.261,102.966
1.091,0.909,-0.315,-10.742,-76.111,86.670
1.462,0.814,-0.232,-11.597,-69.458,67.261
1.079,0.829,0.046,-10.559,-54.077,62.805
0.524,0.852,-0.083,-9.521,-49.194,72.021
0.107,1.051,-0.140,-6.653,-51.880,83.191
-0.265,1.207,-0.256,-10.681,-56.885,94.788
-0.282,1.597,-0.180,-7.690,-46.448,95.886
-0.001,1.635,-0.128,0.977,-27.405,89.294
0.236,1.280,-0.294,-4.211,-15.137,86.060
0.169,1.019,-0.558,-13.550,-8.057,88.562
0.196,1.024,-0.662,-15.503,-6.897,91.858
0.164,1.005,-0.692,-18.250,-12.573,95.276
0.075,1.037,-0.664,-17.578,-17.395,95.764
0.333,1.039,-0.424,-6.836,-19.287,88.013
0.074,0.826,-0.355,-5.798,-13.672,85.266
0.067,0.746,-0.540,-5.493,-8.362,80.139
0.022,0.836,-0.437,-0.671,5.127,66.956
-0.321,0.994,-0.418,3.906,23.315,61.523
-0.345,1.082,-0.431,7.935,35.645,57.312
0.417,1.036,-0.378,14.160,41.565,43.274
0.435,0.867,-0.182,5.737,44.617,38.879
-0.354,0.978,-0.294,-5.310,43.640,51.208
0.463,1.109,-0.270,5.127,32.288,42.847
0.511,0.775,-0.131,-1.465,22.644,34.302
-0.249,0.888,-0.444,-13.916,20.935,44.861
0.382,1.034,-0.419,-5.432,16.113,35.828
0.262,0.894,-0.302,-6.836,19.897,31.494
0.012,0.960,-0.444,-6.226,21.118,33.813
0.065,0.821,-0.457,-2.808,22.034,26.978
0.264,0.949,-0.416,0.366,27.344,21.790
0.011,0.857,-0.454,1.709,34.241,20.203
0.221,0.798,-0.405,1.709,37.292,16.602
0.176,0.941,-0.358,2.563,38.330,16.907
0.239,0.827,-0.352,2.625,34.485,14.832
0.193,0.803,-0.356,-0.488,28.625,16.357
0.117,1.017,-0.370,2.380,27.710,15.564
0.406,0.732,-0.427,-0.122,27.283,9.277
0.054,0.979,-0.307,-0.244,27.466,16.541
-0.161,0.967,-0.412,2.930,28.931,16.602
0.348,0.842,-0.390,4.517,28.748,11.108
0.115,0.896,-0.396,2.197,24.780,15.320
0.188,0.854,-0.464,3.357,23.437,14.099
-0.007,0.950,-0.399,3.601,22.888,16.724
0.174,0.898,-0.393,5.981,24.231,14.893
0.154,0.899,-0.399,5.188,24.109,15.320
0.077,0.927,-0.414,6.165,22.949,17.456
0.099,0.961,-0.366,7.874,22.583,16.418
0.354,0.815,-0.439,5.554,20.752,14.099
0.039,0.962,-0.404,4.272,19.104,18.738
0.036,0.925,-0.410,6.226,19.165,17.883
0.365,0.894,-0.368,6.287,19.470,15.381
0.018,0.914,-0.421,4.761,19.104,19.592
-0.133,0.929,-0.410,6.348,17.944,23.376
0.125,1.024,-0.310,10.254,19.714,22.095
0.458,0.800,-0.442,6.714,19.226,18.799
0.003,0.856,-0.522,3.174,14.893,27.893
-0.393,1.132,-0.314,10.559,17.578,32.715
0.542,0.841,-0.307,11.719,20.325,24.475
0.015,0.778,-0.540,3.296,16.296,34.668
-0.296,1.062,-0.344,9.888,18.555,37.903
0.334,0.893,-0.291,7.324,18.921,33.081
0.026,0.874,-0.471,5.737,19.287,38.696
0.078,0.975,-0.296,8.911,21.423,39.917
-0.037,0.966,-0.382,6.226,18.982,43.091
0.152,0.833,-0.448,8.057,20.386,42.969
0.165,0.981,-0.356,9.644,22.278,46.021
-0.027,0.911,-0.422,9.888,22.034,50.781
0.094,0.898,-0.390,13.123,22.156,54.077
0.225,0.929,-0.329,14.160,21.057,57.373
-0.208,0.916,-0.432,12.329,16.541,64.575
0.351,0.966,-0.257,16.113,14.587,61.951
0.021,0.929,-0.470,8.423,9.155,67.261
-0.304,1.028,-0.332,9.949,7.385,70.496
0.060,1.112,-0.234,12.512,7.996,69.214
-0.049,1.002,-0.425,10.925,7.080,71.228
-0.092,1.078,-0.359,13.245,8.789,72.693
-0.148,1.086,-0.444,12.695,10.742,74.524
-0.001,1.149,-0.384,15.930,16.785,76.172
-0.013,1.113,-0.461,15.564,20.935,80.261
-0.079,1.164,-0.413,16.357,25.757,83.801
0.044,1.231,-0.381,19.287,30.640,86.060
0.206,1.126,-0.461,18.677,33.264,88.684
-0.077,1.251,-0.516,17.822,33.081,95.764
0.089,1.278,-0.409,19.470,38.696,96.619
0.195,1.237,-0.422,19.165,43.823,99.548
-0.038,1.365,-0.376,19.409,46.814,106.262
-0.174,1.494,-0.376,22.461,50.293,111.084
0.259,1.518,-0.356,27.161,56.335,109.558
0.431,1.528,-0.504,26.611,60.120,115.479
0.023,1.698,-0.583,26.184,59.875,129.028
0.405,1.779,-0.416,33.142,64.758,131.897
0.699,1.579,-0.535,30.212,66.528,134.827
0.370,1.514,-0.643,26.733,70.129,145.081
0.408,1.262,-0.534,21.973,75.562,148.987
0.401,1.219,-0.475,13.550,69.763,149.109
0.001,1.316,-0.440,8.118,65.308,147.949
-0.275,1.396,-0.435,10.864,66.467,145.142
-0.406,1.392,-0.429,16.296,66.895,143.860
-0.349,1.313,-0.479,20.508,65.918,140.991
-0.072,1.270,-0.487,24.658,63.965,133.484
0.139,1.120,-0.514,27.466,60.486,123.108
0.332,0.934,-0.458,29.785,54.932,110.413
0.352,0.754,-0.333,30.701,47.119,98.389
0.272,0.557,-0.302,28.503,37.415,89.783
0.029,0.423,-0.233,24.536,31.860,82.825
-0.548,0.255,-0.278,14.404,25.452,80.872
-0.612,0.290,-0.380,8.179,14.954,77.209
-0.198,0.403,-0.266,9.399,3.479,61.584
0.009,0.474,-0.233,7.324,-3.784,41.199
0.141,0.562,-0.225,7.202,-9.583,24.963
0.112,0.619,-0.078,8.850,-16.663,14.404
-0.276,0.568,-0.197,7.141,-16.724,12.573
-0.102,0.411,-0.191,10.864,-15.991,3.052
0.094,0.226,-0.120,15.930,-15.015,-12.878
0.231,0.120,-0.118,18.494,-18.127,-30.090
0.241,0.099,-0.140,18.555,-23.865,-44.495
0.201,0.158,-0.128,18.799,-29.968,-56.152
0.185,0.219,-0.137,18.433,-38.208,-67.993
0.134,0.256,-0.193,17.273,-46.387,-80.750
0.099,0.309,-0.235,16.418,-54.260,-92.712
0.040,0.392,-0.244,16.907,-61.523,-103.455
-0.025,0.432,-0.249,17.029,-66.345,-113.464
-0.030,0.463,-0.247,16.235,-71.411,-124.329
-0.017,0.485,-0.254,15.076,-77.515,-135.254
-0.026,0.513,-0.265,14.404,-81.909,-146.423
-0.023,0.551,-0.266,13.916,-83.801,-157.898
-0.018,0.571,-0.264,13.184,-82.947,-168.884
0.058,0.589,-0.278,10.559,-83.374,-180.054
0.145,0.614,-0.318,6.714,-86.243,-190.796
0.194,0.674,-0.342,3.174,-88.379,-201.233
0.224,0.738,-0.372,-0.549,-89.294,-210.754
0.222,0.846,-0.409,-2.869,-89.905,-217.834
0.164,0.948,-0.433,-5.676,-86.304,-226.135
0.063,1.076,-0.449,-3.967,-75.623,-230.835
0.025,1.109,-0.474,-4.272,-64.270,-235.779
-0.026,1.179,-0.474,-6.287,-54.993,-240.845
-0.097,1.302,-0.509,-6.897,-44.556,-248.352
-0.112,1.353,-0.499,-8.911,-34.302,-256.836
-0.057,1.397,-0.520,-14.221,-28.687,-263.794
0.024,1.469,-0.544,-21.667,-29.419,-268.860
0.057,1.538,-0.560,-30.640,-35.339,-272.461
0.090,1.569,-0.534,-39.124,-45.898,-273.071
0.011,1.678,-0.528,-45.227,-58.350,-269.836
-0.110,1.734,-0.517,-48.035,-66.895,-264.343
-0.314,1.797,-0.539,-45.593,-65.613,-253.113
-0.460,1.866,-0.531,-39.063,-54.993,-238.770
-0.563,1.892,-0.524,-32.349,-39.001,-226.562
-0.631,1.857,-0.472,-27.527,-25.574,-213.806
-0.663,1.746,-0.433,-23.437,-14.282,-200.806
-0.677,1.675,-0.397,-21.240,-6.714,-185.242
-0.684,1.604,-0.349,-21.484,-10.010,-168.640
-0.716,1.492,-0.301,-19.348,-12.634,-148.621
-0.722,1.381,-0.293,-17.944,-15.686,-127.869
-0.778,1.332,-0.294,-15.564,-17.029,-105.042
-0.893,1.309,-0.250,-12.756,-14.893,-79.712
-0.989,1.261,-0.209,-9.827,-9.583,-52.124
-0.980,1.274,-0.202,-5.615,-3.418,-22.400
-0.870,1.273,-0.158,-2.686,-2.808,7.080
-0.703,1.199,-0.165,-0.793,-6.653,34.363
-0.606,1.178,-0.174,1.648,-14.465,58.960
-0.481,1.143,-0.266,1.648,-25.391,77.271
-0.521,1.182,-0.265,1.526,-32.471,91.248
-0.418,1.150,-0.466,-0.305,-35.706,100.281
0.708,1.145,-0.520,1.953,-35.095,83.496
1.471,1.030,-0.202,7.141,-22.339,56.152
1.201,0.869,0.055,6.042,-5.981,53.711
0.551,0.821,-0.015,2.563,-3.174,66.711
-0.016,0.978,-0.262,0.305,-12.085,80.872
-0.253,1.095,-0.486,-7.935,-22.888,89.661
-0.018,1.469,-0.320,-9.521,-20.325,88.867
0.244,1.481,-0.326,-5.920,-17.700,83.557
0.625,1.270,-0.250,-2.075,-15.869,74.890
0.240,0.985,-0.343,-7.202,-11.475,76.965
-0.076,0.974,-0.539,-11.902,-10.254,84.412
0.082,1.074,-0.530,-10.925,-10.620,82.397
0.092,0.993,-0.607,-13.550,-8.301,79.163
0.074,1.042,-0.462,-10.071,-3.235,79.346
0.145,0.982,-0.416,-2.869,3.113,77.454
0.269,0.773,-0.385,-1.587,5.554,70.618
0.045,0.778,-0.401,-2.319,12.817,67.017
-0.037,0.922,-0.356,2.869,21.118,62.073
0.290,0.927,-0.214,6.653,26.855,50.598
0.078,0.882,-0.244,-0.061,30.334,49.255
0.289,1.025,-0.284,1.709,26.367,48.340
0.519,0.984,-0.176,1.465,20.081,42.175
0.193,0.947,-0.256,-3.418,14.038,45.288
-0.059,0.962,-0.306,-5.615,7.141,47.974
0.464,0.970,-0.354,-2.136,1.587,38.513
0.592,0.803,-0.284,-5.432,-0.610,30.701
-0.302,0.792,-0.413,-17.212,-3.357,40.955
0.005,1.122,-0.459,-8.423,1.038,39.856
0.718,0.908,-0.227,-2.563,5.798,24.719
-0.306,0.768,-0.408,-14.648,11.414,35.767
0.032,1.044,-0.497,-9.460,19.104,35.278
0.423,0.950,-0.283,-4.150,27.161,26.062
-0.045,0.779,-0.388,-8.667,32.288,29.785
0.173,0.902,-0.364,-6.531,37.964,27.161
0.161,0.887,-0.373,-6.287,38.757,24.780

0.248,0.900,-0.356,7.751,16.968,51.453
-0.017,0.938,-0.448,5.371,14.404,56.885
-0.094,1.024,-0.393,7.324,15.381,58.044
0.272,0.911,-0.357,9.216,19.775,57.129
-0.106,0.913,-0.450,6.104,17.822,63.049
-0.278,0.985,-0.361,5.676,17.944,66.772
0.108,1.079,-0.263,9.277,22.278,65.247
0.389,0.947,-0.356,7.141,23.865,63.782
-0.435,1.002,-0.486,1.282,19.226,73.914
-0.348,1.229,-0.293,8.179,26.123,72.083
0.605,0.977,-0.346,7.874,34.119,67.200
-0.669,1.186,-0.577,2.869,32.593,80.505
-0.173,1.250,-0.227,10.315,45.776,74.524
0.457,1.079,-0.379,10.742,49.255,76.172
-0.235,1.258,-0.455,10.742,46.814,85.022
0.065,1.089,-0.419,11.780,47.424,88.013
0.198,1.238,-0.432,12.695,46.875,90.942
0.128,1.301,-0.444,12.451,46.143,95.703
0.020,1.239,-0.479,12.512,44.128,102.417
0.127,1.364,-0.368,16.235,45.837,105.957
0.236,1.411,-0.416,17.700,47.546,109.253
-0.072,1.428,-0.505,17.456,47.241,116.028
0.191,1.592,-0.347,23.743,54.199,113.770
0.170,1.571,-0.508,21.118,58.960,117.126
0.136,1.694,-0.583,23.071,63.110,126.221
0.506,1.725,-0.544,28.564,66.772,130.981
0.560,1.412,-0.647,27.039,69.153,138.550
0.431,1.201,-0.630,20.020,70.129,144.775
0.198,1.089,-0.583,6.470,64.453,145.386
-0.095,1.264,-0.484,0.366,60.120,142.944
-0.235,1.360,-0.401,1.404,62.073,137.207
-0.327,1.380,-0.427,5.005,62.073,136.353
-0.357,1.333,-0.487,8.423,61.646,135.620
-0.193,1.290,-0.477,15.076,65.369,130.066
0.015,1.106,-0.437,20.386,72.815,120.911
0.129,0.920,-0.431,22.278,78.064,111.816
0.143,0.740,-0.441,21.179,80.200,104.309
0.191,0.615,-0.387,19.958,76.538,95.154
-0.060,0.487,-0.336,16.724,71.655,85.205
-0.378,0.357,-0.390,11.108,61.768,78.186
-0.146,0.422,-0.345,9.338,47.546,63.049
0.114,0.425,-0.283,7.629,34.973,43.213
0.140,0.481,-0.248,5.554,28.381,25.818
0.191,0.536,-0.217,6.104,23.926,12.024
0.208,0.536,-0.136,8.118,17.639,1.343
0.050,0.487,-0.125,9.338,13.855,-5.188
0.072,0.368,-0.101,11.230,11.963,-15.198
0.152,0.262,-0.080,13.062,8.728,-29.297
0.239,0.197,-0.092,13.611,1.282,-44.922
0.268,0.203,-0.121,11.169,-9.399,-58.960
0.219,0.263,-0.131,8.057,-23.621,-71.167
0.125,0.311,-0.158,6.714,-36.133,-82.031
0.057,0.342,-0.183,5.005,-46.387,-92.773
0.016,0.387,-0.198,3.723,-53.589,-103.882
0.030,0.384,-0.213,2.319,-60.242,-114.990
0.041,0.404,-0.201,0.488,-66.650,-126.709
0.071,0.399,-0.207,-1.892,-73.181,-137.878
0.056,0.472,-0.210,-3.784,-78.735,-148.621
0.067,0.488,-0.240,-5.737,-83.008,-159.180
0.082,0.551,-0.240,-7.019,-86.426,-169.922
0.107,0.587,-0.269,-9.399,-90.088,-179.871
0.109,0.651,-0.292,-11.658,-91.370,-189.941
0.145,0.690,-0.315,-14.587,-91.980,-200.195
0.170,0.755,-0.341,-17.334,-93.079,-209.290
0.122,0.874,-0.389,-18.005,-91.980,-216.675
0.047,0.976,-0.409,-15.869,-84.290,-223.572
0.005,1.066,-0.422,-12.634,-71.533,-229.736
-0.023,1.136,-0.454,-10.925,-58.777,-238.159
-0.070,1.209,-0.476,-10.437,-45.654,-245.056
-0.095,1.323,-0.464,-9.399,-33.447,-248.901
-0.118,1.390,-0.500,-11.169,-25.085,-253.296
-0.066,1.442,-0.552,-16.052,-21.362,-257.446
0.143,1.434,-0.555,-23.437,-26.489,-260.864
0.219,1.519,-0.547,-31.738,-39.734,-262.695
0.158,1.580,-0.531,-40.588,-52.979,-261.780
0.036,1.662,-0.520,-47.180,-64.148,-257.446
-0.128,1.743,-0.564,-50.293,-70.496,-252.441
-0.286,1.864,-0.499,-47.668,-67.505,-245.911
-0.392,1.929,-0.460,-44.006,-60.913,-238.037
-0.468,1.977,-0.424,-37.354,-49.927,-225.952
-0.490,1.885,-0.404,-30.884,-40.466,-213.257
-0.528,1.699,-0.433,-28.015,-36.438,-197.571
-0.589,1.578,-0.454,-25.574,-31.067,-177.002
-0.605,1.479,-0.453,-27.954,-34.668,-159.180
-0.691,1.386,-0.446,-29.114,-37.476,-140.503
-0.752,1.321,-0.409,-29.114,-40.771,-120.056
-0.856,1.308,-0.327,-26.001,-39.917,-97.107
-0.998,1.312,-0.229,-20.874,-33.325,-72.144
-1.010,1.279,-0.230,-13.672,-25.757,-45.044
-0.845,1.173,-0.129,-7.996,-23.499,-15.076
-0.586,1.067,-0.140,-6.836,-29.358,13.733
-0.458,1.081,-0.159,-7.874,-37.231,40.283
-0.477,1.135,-0.196,-7.690,-45.166,62.622
-0.553,1.176,-0.201,-5.249,-49.866,78.491
-0.662,1.149,-0.226,-2.441,-48.584,89.905
-0.540,1.079,-0.360,-1.526,-47.302,97.473
-0.290,1.038,-0.536,-1.099,-39.429,94.788
0.634,0.960,-0.613,2.014,-25.085,76.599
1.286,0.914,-0.369,10.681,-9.094,58.350
1.116,0.796,-0.028,9.033,15.503,49.377
0.534,0.825,0.032,4.272,13.794,59.570
0.399,0.923,-0.235,0.610,-7.568,71.411
-0.103,1.135,-0.274,-6.836,-17.456,83.862
0.021,1.463,-0.463,-13.550,-28.503,89.355
0.372,1.620,-0.167,-9.216,-24.048,82.031
0.345,1.356,-0.145,-9.338,-21.851,83.130
0.054,1.141,-0.300,-13.428,-21.606,88.928
0.149,1.071,-0.445,-16.724,-23.254,87.646
-0.058,1.179,-0.383,-20.203,-18.372,86.426
-0.562,1.212,-0.542,-20.203,-7.080,95.398
0.429,1.183,-0.480,-6.958,-2.747,83.008
0.135,0.829,-0.243,-9.766,2.869,75.073
-0.196,0.783,-0.673,-13.123,9.583,78.918
0.278,0.942,-0.335,-0.305,16.785,67.261
0.021,0.819,-0.349,-1.465,21.790,58.777
0.032,0.874,-0.346,-0.732,26.611,53.955
0.272,0.928,-0.356,-1.038,30.457,46.021
0.257,0.887,-0.306,-4.456,32.471,40.649
0.338,0.932,-0.236,-6.897,27.527,39.246
0.210,0.954,-0.296,-10.315,22.705,39.795
0.316,0.912,-0.317,-10.498,16.907,37.048
0.165,0.866,-0.295,-14.771,11.963,36.743
0.147,0.915,-0.497,-17.639,12.207,35.034
0.465,0.868,-0.294,-13.916,16.357,26.184
-0.014,0.940,-0.333,-16.663,19.165,30.273
-0.071,0.960,-0.481,-10.864,24.292,29.907
0.326,0.871,-0.396,-5.188,31.006,19.775
-0.045,0.875,-0.457,-7.385,39.490,20.508
0.095,0.885,-0.402,-3.357,49.927,17.029
0.017,0.899,-0.368,-2.686,53.101,17.334
0.276,0.836,-0.367,-1.465,52.795,13.184
0.278,0.809,-0.375,-3.418,47.668,13.977
0.192,0.872,-0.383,-2.869,43.274,16.479
0.317,0.947,-0.385,0.488,41.077,14.038
0.339,0.818,-0.434,-1.404,37.598,13.000
0.084,0.968,-0.364,-1.343,34.241,18.372
0.230,0.911,-0.410,2.075,32.593,15.808
0.394,0.856,-0.356,1.282,29.846,13.855
0.085,0.930,-0.423,0.000,26.672,19.531
-0.120,0.992,-0.420,3.113,26.306,22.827
0.397,0.957,-0.375,7.324,26.489,17.517
0.532,0.792,-0.408,3.174,24.475,16.602
-0.230,0.912,-0.446,1.404,20.142,27.588
-0.144,1.087,-0.329,9.827,22.217,25.330
0.703,0.748,-0.371,6.226,20.752,16.296
-0.230,0.976,-0.469,2.136,16.785,29.541
-0.078,0.993,-0.466,7.568,17.639,25.146
0.448,0.893,-0.326,5.493,16.479,21.057
-0.107,0.892,-0.443,4.944,18.677,27.405
0.198,0.901,-0.371,7.629,19.897,26.245
0.103,0.972,-0.321,5.798,17.212,28.503
0.105,0.822,-0.432,5.188,17.456,27.832
0.257,0.916,-0.362,5.554,16.357,28.503
0.009,0.977,-0.401,3.235,13.306,28.992
0.021,0.899,-0.430,4.639,15.564,27.771
0.113,0.946,-0.337,5.920,20.020,26.855
-0.224,0.888,-0.421,4.456,20.325,30.212
0.366,0.895,-0.347,7.446,23.560,24.597
-0.007,0.905,-0.426,2.136,22.583,29.724
-0.219,0.940,-0.413,4.028,24.109,33.447
0.168,0.993,-0.296,7.080,26.001,33.325
0.098,0.876,-0.457,5.005,25.024,37.170
0.035,0.950,-0.382,7.080,26.184,40.466
0.007,0.937,-0.385,5.859,26.489,43.945
0.047,1.030,-0.330,9.644,27.893,47.180
0.138,0.892,-0.359,7.751,26.672,49.866
0.036,0.972,-0.349,7.568,23.010,55.542
-0.001,0.995,-0.295,9.399,21.790,57.922
0.238,0.933,-0.343,9.949,21.484,58.411
-0.072,0.985,-0.403,7.751,17.822,65.186
-0.080,1.033,-0.307,10.376,17.029,67.627
0.271,0.938,-0.358,11.414,16.785,67.261
-0.098,0.949,-0.513,8.179,12.146,72.937
-0.290,1.050,-0.448,9.277,11.658,76.904
0.057,1.224,-0.320,16.174,15.686,75.134
0.312,1.042,-0.459,15.381,19.287,72.815
-0.372,1.033,-0.645,8.728,17.944,82.214
-0.384,1.363,-0.274,17.639,26.062,83.069
0.549,1.049,-0.306,18.616,32.227,75.989
-0.468,1.186,-0.572,15.137,29.541,89.783
-0.154,1.242,-0.202,21.606,36.804,89.539
0.367,1.129,-0.413,22.705,39.612,88.989
-0.227,1.212,-0.511,22.644,40.283,97.168
0.000,1.113,-0.420,22.827,41.870,99.670
0.098,1.260,-0.380,24.292,43.762,102.905
0.091,1.296,-0.276,25.085,48.401,105.164
0.030,1.253,-0.348,24.963,47.791,110.596
0.123,1.378,-0.321,25.574,45.959,116.882
0.187,1.464,-0.375,25.696,46.082,121.582
0.116,1.487,-0.475,25.452,46.387,128.418
0.416,1.626,-0.349,30.029,49.377,131.104
0.489,1.500,-0.441,26.001,45.593,136.353
0.216,1.518,-0.601,22.644,39.917,147.034
0.392,1.520,-0.466,19.836,38.696,151.855
0.414,1.393,-0.482,13.489,34.912,153.503
0.206,1.414,-0.443,10.376,33.142,153.809
-0.026,1.408,-0.470,9.766,33.203,153.076
-0.210,1.438,-0.469,12.756,29.602,154.114
-0.204,1.407,-0.485,15.869,24.841,152.405
-0.025,1.362,-0.493,20.020,21.912,147.949
0.113,1.229,-0.502,25.452,26.733,139.282
0.254,1.016,-0.510,29.114,30.457,128.662
0.301,0.768,-0.477,29.968,32.043,116.577
0.262,0.559,-0.452,28.870,31.799,103.577
0.010,0.390,-0.432,22.522,26.550,93.140
-0.556,0.341,-0.427,15.808,22.278,88.257
-0.441,0.428,-0.361,19.958,15.686,70.435
-0.209,0.397,-0.370,21.301,9.827,45.593
-0.052,0.457,-0.365,18.738,10.681,25.818
0.073,0.569,-0.268,19.287,12.817,9.399
0.039,0.621,-0.125,21.301,12.695,-0.427
-0.215,0.570,-0.202,21.362,14.648,-2.930
-0.058,0.427,-0.160,24.292,16.174,-13.977
0.068,0.263,-0.120,27.405,17.395,-31.921
0.190,0.138,-0.150,27.100,14.221,-48.340
0.225,0.111,-0.155,24.719,7.996,-62.744
0.209,0.164,-0.142,22.095,-1.038,-74.768
0.191,0.230,-0.170,18.860,-16.357,-86.670
0.097,0.293,-0.189,16.357,-27.649,-98.572
0.066,0.342,-0.200,14.404,-36.804,-111.328
0.019,0.376,-0.189,12.817,-44.556,-122.620
0.016,0.383,-0.187,11.169,-52.734,-132.324
0.034,0.386,-0.166,8.606,-61.096,-142.578
0.065,0.426,-0.170,6.470,-69.641,-153.870
0.074,0.458,-0.181,3.967,-78.125,-164.673
0.078,0.517,-0.207,1.526,-85.388,-175.598
0.068,0.568,-0.243,-1.038,-90.515,-186.279
0.082,0.613,-0.271,-3.601,-94.177,-197.388
0.098,0.664,-0.308,-6.348,-96.130,-207.703
0.104,0.744,-0.337,-8.789,-94.604,-217.712
0.105,0.827,-0.373,-10.620,-91.858,-226.196
0.059,0.951,-0.415,-10.864,-86.060,-233.337
0.009,0.998,-0.452,-11.597,-76.294,-241.699
-0.017,1.051,-0.512,-11.230,-65.308,-246.704
-0.099,1.153,-0.550,-10.315,-54.077,-251.587
-0.181,1.228,-0.592,-10.132,-42.053,-258.362
-0.138,1.294,-0.604,-12.634,-34.790,-265.442
-0.061,1.369,-0.624,-19.470,-31.982,-272.766

0.422,0.956,-0.425,-9.949,-18.799,83.984
-0.154,1.013,-0.474,-20.508,-13.733,90.820
0.074,1.073,-0.614,-22.583,-17.395,90.088
0.451,1.124,-0.351,-16.418,-14.709,80.261
-0.321,1.045,-0.289,-16.357,-4.700,88.745
0.058,1.069,-0.551,-7.507,0.122,84.839
0.140,0.890,-0.207,-3.601,10.559,71.960
-0.393,0.900,-0.500,-7.690,25.269,72.876
0.326,1.038,-0.275,4.822,32.043,60.303
0.119,0.850,-0.249,-0.122,41.199,52.856
0.169,0.948,-0.296,-1.770,43.030,53.406
0.276,1.009,-0.299,0.061,38.696,50.232
0.312,0.883,-0.276,-0.244,32.288,44.006
0.286,0.847,-0.305,-3.296,24.414,41.321
0.204,0.901,-0.388,-6.775,20.081,39.856
0.340,0.899,-0.348,-6.653,15.869,35.034
0.038,0.861,-0.328,-10.498,12.817,36.255
0.274,1.013,-0.442,-7.996,13.306,32.593
0.375,0.826,-0.292,-7.263,17.822,27.344
-0.143,0.935,-0.394,-13.428,20.142,34.119
0.098,1.011,-0.428,-6.470,26.489,30.762
0.287,0.833,-0.317,-4.639,31.616,25.146
0.152,0.891,-0.385,-6.531,31.982,26.550
0.108,0.851,-0.366,-6.042,32.654,25.879
0.094,0.941,-0.375,-4.700,34.180,25.452
0.239,0.850,-0.344,-1.892,34.546,21.912
0.150,0.867,-0.348,-1.831,31.311,24.719
0.122,0.897,-0.397,0.793,29.663,24.597
0.393,0.819,-0.385,2.014,29.785,19.470
0.064,0.909,-0.379,-1.282,27.344,23.621
0.079,0.939,-0.426,2.197,28.931,22.278
0.447,0.904,-0.337,3.906,28.992,17.395
0.080,0.861,-0.410,-0.977,24.719,22.827
-0.150,0.958,-0.409,1.587,24.292,26.794
0.278,0.974,-0.330,7.324,26.001,21.545
0.547,0.773,-0.370,3.479,24.109,18.921
-0.212,0.895,-0.455,-1.892,16.907,31.616
-0.110,1.117,-0.339,8.362,18.311,27.649
0.580,0.748,-0.307,5.493,20.630,21.729
-0.234,0.987,-0.453,-0.610,13.489,36.011
0.074,0.965,-0.414,6.348,14.893,29.419
0.421,0.851,-0.318,2.747,13.733,30.579
-0.025,0.969,-0.418,1.770,12.939,34.058
0.012,0.836,-0.419,2.441,11.841,33.508
0.248,0.982,-0.316,2.502,11.230,32.715
0.072,0.985,-0.407,3.540,12.451,32.349
-0.001,0.834,-0.402,1.770,12.268,33.936
0.095,0.966,-0.371,2.686,11.902,33.875
0.160,0.908,-0.335,2.380,13.000,33.264
-0.169,0.865,-0.393,0.854,11.658,38.391
0.279,0.998,-0.317,6.226,14.038,33.569
0.067,0.838,-0.478,0.732,13.611,37.415
-0.260,0.986,-0.431,2.930,14.282,42.114
0.153,1.035,-0.302,7.629,19.165,41.138
0.089,0.823,-0.492,4.272,18.616,45.227
0.043,0.943,-0.419,5.676,19.592,47.302
-0.058,0.999,-0.424,4.944,21.240,51.514
0.075,1.031,-0.347,8.301,24.719,50.781
0.054,0.957,-0.386,7.446,24.414,55.481
-0.033,1.026,-0.360,8.118,24.048,58.289
0.129,1.057,-0.262,9.888,24.902,59.509
0.220,0.938,-0.361,8.484,22.888,61.829
-0.115,1.075,-0.334,7.263,17.822,68.298
0.117,1.094,-0.273,9.888,18.127,67.810
0.151,1.014,-0.402,9.277,16.235,70.679
-0.193,1.136,-0.416,8.362,14.221,76.782
-0.277,1.242,-0.440,11.536,17.395,80.200
0.273,1.139,-0.419,15.869,25.879,75.806
0.079,1.034,-0.562,10.437,25.330,81.848
-0.637,1.287,-0.497,11.230,29.968,89.417
0.320,1.275,-0.242,20.447,43.030,81.787
0.028,1.045,-0.540,16.113,38.269,91.492
-0.448,1.337,-0.398,17.883,37.415,100.098
0.332,1.193,-0.331,21.118,42.236,97.656
-0.025,1.116,-0.522,18.250,39.368,104.553
0.032,1.236,-0.331,19.165,44.312,106.689
0.052,1.299,-0.364,20.691,46.326,110.840
0.098,1.253,-0.390,20.691,50.171,112.305
0.096,1.308,-0.498,21.851,50.781,116.638
0.050,1.427,-0.550,22.461,53.772,121.216
0.259,1.509,-0.532,23.071,58.350,123.596
0.280,1.555,-0.595,22.827,59.448,130.981
0.339,1.681,-0.582,28.076,63.538,138.184
0.532,1.393,-0.617,25.940,67.017,143.616
0.283,1.271,-0.585,14.648,62.317,149.963
0.083,1.322,-0.546,3.845,54.810,149.048
0.045,1.369,-0.509,-1.709,48.462,145.325
-0.086,1.412,-0.482,-2.686,44.250,144.104
-0.153,1.366,-0.511,-0.793,41.565,143.250
-0.122,1.324,-0.506,3.174,41.321,139.832
0.017,1.234,-0.410,10.437,48.584,131.897
0.138,1.039,-0.406,16.052,57.495,122.192
0.130,0.829,-0.436,19.775,65.552,111.816
0.058,0.651,-0.386,22.644,73.730,99.060
-0.283,0.441,-0.355,21.790,80.566,87.524
-0.620,0.363,-0.353,17.883,78.003,81.543
-0.233,0.435,-0.285,18.433,63.843,66.284
0.046,0.440,-0.360,14.709,45.105,47.546
0.226,0.571,-0.301,12.817,32.593,31.921
0.008,0.618,-0.299,6.775,24.841,23.499
-0.117,0.666,-0.299,5.005,20.935,19.653
0.156,0.506,-0.118,10.864,18.005,7.019
0.262,0.277,-0.009,14.160,14.893,-6.592
0.281,0.178,-0.006,12.878,10.925,-22.034
0.268,0.217,-0.039,10.620,2.563,-36.133
0.258,0.285,-0.032,7.874,-11.292,-48.279
0.169,0.355,-0.013,7.019,-24.292,-59.814
0.055,0.382,-0.032,5.920,-35.217,-71.167
0.001,0.370,-0.083,4.822,-42.664,-83.862
0.015,0.353,-0.130,3.235,-47.913,-96.863
0.046,0.358,-0.148,1.221,-54.382,-109.741
0.064,0.377,-0.167,-0.671,-61.646,-122.559
0.078,0.405,-0.180,-1.953,-68.359,-134.766
0.090,0.422,-0.191,-3.174,-74.951,-146.179
0.091,0.443,-0.200,-4.700,-80.994,-157.715
0.090,0.519,-0.216,-5.615,-86.792,-169.128
0.102,0.564,-0.239,-5.798,-90.454,-180.603
0.062,0.625,-0.256,-6.042,-90.271,-192.017
0.031,0.650,-0.293,-7.874,-83.618,-204.468
0.023,0.720,-0.301,-8.850,-72.754,-217.041
0.003,0.839,-0.316,-9.216,-61.462,-229.126
-0.044,0.952,-0.353,-7.202,-47.791,-237.671
-0.065,0.938,-0.357,-5.737,-29.663,-244.019
0.007,0.999,-0.404,-7.568,-14.465,-250.793
-0.102,1.158,-0.473,-7.324,-1.221,-258.728
-0.220,1.215,-0.501,-6.287,13.245,-263.916
-0.235,1.232,-0.497,-10.010,22.705,-267.029
-0.193,1.264,-0.493,-18.555,25.574,-271.240
-0.072,1.361,-0.500,-28.992,21.912,-275.391
0.136,1.464,-0.458,-38.818,11.902,-279.419
0.238,1.660,-0.423,-48.218,-4.761,-282.410
0.211,1.746,-0.394,-56.458,-22.461,-278.564
0.154,1.720,-0.403,-65.491,-40.710,-269.226
-0.016,1.710,-0.378,-70.679,-57.678,-256.775
-0.285,1.712,-0.337,-71.228,-68.054,-242.676
-0.523,1.707,-0.306,-66.895,-69.763,-227.478
-0.522,1.772,-0.273,-60.669,-66.772,-212.524
-0.498,1.872,-0.345,-56.274,-66.956,-199.463
-0.472,1.934,-0.404,-50.049,-69.702,-186.646
-0.504,1.889,-0.455,-43.152,-76.843,-173.706
-0.637,1.741,-0.434,-34.607,-82.031,-155.762
-0.809,1.507,-0.432,-28.992,-84.839,-134.583
-0.943,1.326,-0.431,-27.527,-82.825,-111.755
-1.047,1.275,-0.423,-27.222,-75.195,-87.952
-1.170,1.275,-0.389,-26.245,-61.096,-64.148
-1.186,1.268,-0.326,-21.790,-43.884,-38.208
-1.078,1.250,-0.213,-16.357,-29.785,-11.047
-0.882,1.219,-0.173,-10.071,-21.240,16.235
-0.730,1.206,-0.149,-3.601,-17.761,42.603
-0.633,1.179,-0.179,0.366,-21.484,65.613
-0.505,1.136,-0.281,1.892,-27.649,80.383
-0.530,1.178,-0.241,4.150,-30.212,91.980
-0.162,1.023,-0.606,2.625,-27.832,94.727
1.088,1.008,-0.581,6.653,-27.344,76.660
1.441,0.948,-0.040,11.597,-10.742,60.608
0.870,0.846,0.093,2.441,2.991,62.561
0.438,0.963,-0.061,-3.784,-12.756,79.529
-0.283,1.231,-0.368,-13.000,-24.658,100.281
0.122,1.629,-0.440,-15.564,-36.438,103.149
0.188,1.648,-0.255,-14.648,-27.954,95.520
0.339,1.294,-0.438,-17.273,-28.442,96.680
0.402,1.022,-0.483,-20.935,-34.363,98.572
-0.069,0.938,-0.668,-31.189,-43.030,106.079
-0.211,1.200,-0.703,-26.794,-42.236,108.948
0.323,1.309,-0.270,-7.751,-26.428,91.614
-0.010,0.895,-0.111,-8.606,-6.348,89.539
-0.358,0.800,-0.568,-12.207,5.737,95.032
0.367,0.883,-0.356,1.160,13.000,79.102
-0.384,0.786,-0.447,-3.845,30.029,77.454
-0.012,1.022,-0.489,4.578,40.710,71.167
0.253,0.944,-0.206,7.690,46.814,59.814
0.189,0.851,-0.321,-0.671,50.232,56.702
0.148,0.855,-0.310,-4.272,45.227,55.481
0.317,0.946,-0.182,-5.981,39.917,51.514
0.401,0.951,-0.198,-10.315,34.546,52.002
0.171,0.904,-0.266,-14.526,31.006,53.589
0.231,0.930,-0.392,-12.573,26.550,49.988
0.316,0.894,-0.344,-11.414,22.339,43.579
-0.040,0.938,-0.463,-11.292,19.287,43.457
0.528,0.869,-0.353,-3.113,20.569,30.823
-0.060,0.934,-0.350,-6.470,24.475,34.790
-0.127,0.960,-0.494,-2.136,27.222,33.447
0.347,0.870,-0.387,1.038,29.236,23.926
0.074,0.932,-0.354,-0.793,29.907,27.649
0.170,0.868,-0.382,1.221,31.067,25.208
0.021,0.937,-0.333,0.488,29.541,27.649
0.289,0.847,-0.361,1.282,27.283,22.888
0.162,0.881,-0.352,-1.587,22.888,24.292
0.015,0.916,-0.399,0.122,23.560,24.658
0.255,0.925,-0.357,3.479,25.818,18.433
0.140,0.814,-0.415,-0.244,24.719,19.165
-0.029,0.953,-0.383,2.441,25.085,20.447
0.311,0.900,-0.355,5.249,26.428,13.794
0.169,0.823,-0.404,0.610,23.560,15.869
-0.066,0.961,-0.414,0.732,21.484,20.752
-0.018,1.021,-0.382,5.859,23.071,19.531
0.480,0.802,-0.395,6.348,25.818,12.207
0.132,0.804,-0.455,-1.343,20.752,19.836
-0.402,1.105,-0.356,4.089,19.226,26.306
0.453,0.923,-0.266,9.766,24.353,14.038
0.073,0.700,-0.469,-3.601,19.714,23.621
-0.250,1.124,-0.397,3.845,18.311,27.649
0.344,0.843,-0.327,4.333,19.592,20.081
0.053,0.838,-0.389,-0.122,17.212,26.611
0.109,0.971,-0.381,3.540,17.883,24.536
0.036,0.939,-0.341,1.343,13.977,26.428
0.122,0.843,-0.401,0.977,12.817,25.330
0.158,0.991,-0.354,2.747,12.573,25.757
-0.036,0.925,-0.404,0.916,9.827,27.588
0.065,0.880,-0.423,2.319,9.644,25.940
0.167,0.922,-0.378,2.869,10.620,26.245
-0.247,0.966,-0.404,3.113,10.498,30.823
0.390,0.795,-0.367,4.333,13.489,25.085
-0.001,0.991,-0.413,-0.732,12.085,32.349
-0.315,0.981,-0.391,1.770,14.709,35.217
0.242,0.972,-0.313,5.798,18.921,34.790
-0.035,0.901,-0.486,2.380,18.738,40.955
0.051,0.933,-0.411,5.188,20.813,43.091
-0.074,0.969,-0.428,5.737,22.339,48.706
0.137,0.996,-0.404,9.399,24.597,49.561
0.068,0.981,-0.432,9.094,22.888,56.274
-0.057,1.009,-0.391,9.521,21.240,60.242
0.167,1.046,-0.291,12.207,22.217,60.608
0.105,0.938,-0.392,8.850,20.752,65.002
-0.130,1.061,-0.322,8.606,17.334,70.251
0.225,1.069,-0.248,10.864,17.944,68.909
0.047,0.985,-0.407,8.667,16.357,73.547
-0.238,1.146,-0.372,8.179,13.611,79.407
-0.128,1.252,-0.325,13.000,15.869,80.627
0.323,1.089,-0.405,15.747,18.921,78.003
-0.167,1.005,-0.618,8.850,16.846,86.670
-0.608,1.328,-0.434,12.817,23.560,91.248
0.586,1.187,-0.248,18.799,34.973,82.886
-0.331,1.094,-0.656,12.024,30.518,96.252
-0.364,1.332,-0.283,19.897,41.077,98.572
0.408,1.154,-0.395,21.912,46.875,97.107
-0.211,1.241,-0.544,21.179,47.485,105.103
-0.063,1.241,-0.425,22.888,52.002,108.154

0.065,0.586,-0.172,13.367,17.334,4.150
-0.271,0.591,-0.323,11.475,17.883,1.465
0.003,0.471,-0.263,17.273,20.447,-9.705
0.231,0.223,-0.156,21.484,18.921,-29.175
0.341,0.072,-0.118,22.400,13.550,-47.119
0.355,0.032,-0.138,20.630,7.141,-62.683
0.286,0.092,-0.144,17.822,0.977,-75.867
0.271,0.187,-0.152,15.076,-10.864,-91.187
0.188,0.260,-0.177,13.916,-20.325,-105.896
0.116,0.312,-0.196,12.512,-26.611,-119.263
0.058,0.375,-0.189,11.841,-30.762,-131.287
0.023,0.423,-0.175,10.864,-34.546,-142.029
-0.003,0.453,-0.159,9.399,-38.879,-153.259
-0.004,0.464,-0.149,7.812,-42.358,-164.917
0.035,0.481,-0.144,6.348,-46.082,-176.758
0.105,0.506,-0.156,4.089,-52.002,-188.049
0.157,0.552,-0.173,1.160,-59.570,-198.914
0.203,0.599,-0.215,-2.502,-67.444,-208.679
0.222,0.653,-0.259,-6.470,-74.036,-217.896
0.198,0.741,-0.286,-9.705,-77.698,-227.173
0.174,0.843,-0.311,-12.207,-78.125,-236.511
0.151,0.971,-0.339,-12.024,-76.050,-243.713
0.174,0.966,-0.348,-15.991,-76.599,-250.549
0.072,1.082,-0.382,-18.433,-74.158,-252.686
-0.127,1.224,-0.477,-15.259,-61.829,-255.432
-0.095,1.252,-0.515,-14.893,-52.063,-263.306
0.017,1.332,-0.539,-19.897,-51.086,-270.386
0.071,1.468,-0.578,-27.344,-56.519,-276.001
0.075,1.624,-0.575,-33.081,-64.331,-279.907
0.091,1.719,-0.567,-37.659,-74.280,-281.311
-0.067,1.729,-0.626,-42.053,-85.449,-276.001
-0.147,1.751,-0.505,-47.546,-96.497,-269.836
-0.347,1.765,-0.564,-54.199,-100.525,-264.343
-0.508,1.910,-0.653,-54.810,-96.436,-255.066
-0.589,1.986,-0.780,-49.500,-88.623,-240.479
-0.707,1.978,-0.834,-42.236,-72.876,-223.450
-0.825,1.874,-0.824,-35.889,-47.913,-205.200
-0.860,1.791,-0.715,-29.907,-27.161,-186.462
-0.848,1.673,-0.648,-24.536,-10.559,-170.959
-0.903,1.556,-0.540,-20.447,5.554,-156.067
-0.932,1.415,-0.427,-18.860,14.587,-140.320
-0.914,1.293,-0.362,-18.921,16.541,-123.718
-0.942,1.264,-0.335,-17.029,19.897,-102.356
-0.991,1.282,-0.273,-12.634,25.696,-78.308
-0.987,1.264,-0.226,-7.996,32.837,-52.124
-0.881,1.241,-0.179,-2.136,36.438,-24.963
-0.709,1.152,-0.188,0.427,32.898,-0.061
-0.559,1.130,-0.191,0.244,22.461,24.414
-0.490,1.176,-0.144,-0.610,5.920,48.584
-0.490,1.193,-0.097,-1.404,-11.475,69.092
-0.377,1.171,-0.153,-1.648,-23.865,82.764
-0.296,1.163,-0.110,-2.930,-42.236,95.032
0.094,1.091,-0.362,-6.531,-62.805,103.333
1.413,1.046,-0.397,-2.380,-63.721,79.468
2.012,0.961,0.205,3.052,-46.265,48.340
0.899,0.784,0.288,-2.441,-31.860,58.655
0.071,0.892,-0.194,-11.658,-46.021,84.290
-0.164,1.181,-0.452,-20.325,-58.594,93.933
-0.345,1.746,-0.247,-18.921,-52.551,98.267
-0.182,1.767,-0.361,-11.902,-39.856,98.145
0.654,1.466,-0.090,-2.563,-30.457,85.205
0.121,0.888,-0.438,-14.282,-21.118,89.417
0.030,0.927,-0.687,-17.029,-15.137,96.313
0.080,0.996,-0.599,-15.686,-12.756,92.834
0.076,1.028,-0.669,-14.832,-10.864,90.637
0.104,1.019,-0.491,-6.042,-5.981,85.510
0.193,0.873,-0.363,-0.977,0.854,78.003
0.105,0.736,-0.385,-1.221,8.301,72.327
-0.190,0.872,-0.372,1.160,22.522,66.650
-0.069,1.053,-0.294,9.094,37.842,56.458
-0.134,0.943,-0.224,6.897,48.767,49.255
0.521,0.994,-0.258,7.019,51.392,40.588
0.349,0.828,-0.185,-2.808,44.556,37.903
0.001,0.963,-0.291,-9.521,34.607,45.105
0.498,1.064,-0.237,-5.859,23.499,39.917
0.231,0.877,-0.284,-12.085,16.724,37.903
0.330,0.886,-0.420,-13.916,10.132,37.598
0.033,0.872,-0.461,-15.198,6.897,36.011
0.264,0.960,-0.467,-9.338,10.010,31.616
0.107,0.885,-0.430,-5.859,17.212,27.710
0.058,0.901,-0.471,-3.357,22.034,26.367
0.272,0.918,-0.448,1.770,26.184,21.667
0.285,0.818,-0.382,2.136,30.884,18.433
-0.020,0.941,-0.395,1.343,36.011,22.522
0.341,0.898,-0.375,5.127,37.659,16.479
0.355,0.812,-0.279,2.502,37.415,15.686
0.108,0.861,-0.355,-0.916,31.433,22.278
-0.005,0.934,-0.373,0.061,27.710,22.522
0.559,0.894,-0.318,3.967,27.466,13.245
0.358,0.756,-0.284,-2.014,24.048,16.846
-0.405,0.952,-0.404,-4.883,21.362,28.687
0.255,1.002,-0.381,4.395,26.062,15.991
0.447,0.755,-0.302,-0.366,23.682,15.320
-0.260,0.993,-0.396,-2.625,22.156,30.457
0.249,0.928,-0.462,2.930,26.062,19.897
0.322,0.848,-0.309,1.587,24.414,23.193
0.077,0.943,-0.382,2.258,25.513,27.283
0.023,0.824,-0.471,2.380,26.001,24.292
0.296,0.948,-0.303,4.517,25.818,25.085
0.138,0.928,-0.328,3.784,26.855,24.475
0.099,0.814,-0.386,1.526,25.696,25.696
0.156,0.935,-0.337,1.892,22.583,27.344
0.225,0.907,-0.343,0.916,21.240,25.818
-0.117,0.907,-0.431,-0.549,18.616,32.349
0.440,0.951,-0.324,3.967,18.799,26.550
0.156,0.855,-0.457,-2.380,13.123,30.518
-0.180,0.972,-0.409,0.244,10.925,35.278
0.161,0.975,-0.336,3.418,12.207,31.555
0.076,0.816,-0.476,-0.122,10.681,34.119
0.086,0.922,-0.404,0.793,12.024,34.180
-0.090,0.936,-0.396,-0.305,12.024,37.659
0.147,0.954,-0.329,2.991,15.564,36.926
0.097,0.849,-0.432,0.793,15.991,39.734
-0.002,0.960,-0.385,2.258,15.320,43.701
0.156,0.999,-0.323,6.104,17.334,42.847
0.211,0.819,-0.449,3.662,16.357,45.349
-0.088,0.996,-0.419,3.845,14.282,50.293
0.222,0.980,-0.309,8.362,16.357,48.035
0.161,0.812,-0.500,5.554,14.954,51.575
-0.140,1.020,-0.449,6.226,11.963,57.800
-0.048,1.087,-0.344,10.681,13.245,60.120
0.426,0.884,-0.409,12.817,17.822,56.152
-0.070,0.824,-0.559,4.883,13.367,65.125
-0.552,1.242,-0.308,10.010,12.268,71.106
0.709,0.975,-0.185,16.113,19.470,62.622
-0.403,0.959,-0.614,6.775,11.658,76.782
-0.213,1.181,-0.185,13.672,15.076,77.087
0.505,0.988,-0.384,12.573,15.869,75.989
-0.271,1.080,-0.491,9.583,14.160,83.008
-0.048,1.038,-0.347,10.193,16.174,86.182
0.140,1.192,-0.368,12.329,17.578,88.135
0.104,1.233,-0.405,11.597,20.569,90.576
-0.165,1.133,-0.537,10.193,21.606,96.130
-0.009,1.221,-0.355,12.390,28.137,96.741
0.202,1.233,-0.390,13.367,32.166,99.854
-0.272,1.240,-0.510,12.695,32.227,107.849
0.272,1.213,-0.337,15.625,38.452,105.957
0.079,1.277,-0.523,11.597,36.987,114.929
-0.257,1.390,-0.489,11.230,42.175,119.873
0.158,1.380,-0.350,14.771,53.223,117.981
-0.057,1.471,-0.458,16.235,59.021,122.986
0.137,1.505,-0.480,16.968,64.148,127.075
0.178,1.657,-0.582,17.029,64.514,135.254
0.424,1.753,-0.536,18.982,67.749,139.587
0.543,1.769,-0.596,20.752,70.557,149.109
0.417,1.608,-0.608,20.386,74.890,156.982
0.415,1.483,-0.467,14.526,78.857,156.006
0.136,1.493,-0.424,5.310,80.261,154.358
-0.089,1.609,-0.390,5.066,84.595,150.085
0.020,1.552,-0.380,8.118,89.294,142.883
-0.046,1.403,-0.500,7.568,86.548,139.038
-0.119,1.347,-0.552,8.972,81.177,134.521
-0.008,1.281,-0.526,13.855,82.703,123.230
0.301,1.090,-0.473,19.775,87.341,109.619
0.519,0.828,-0.448,22.766,84.045,99.609
0.342,0.633,-0.376,23.804,79.163,92.224
0.206,0.337,-0.387,19.104,69.702,84.961
-0.405,0.145,-0.342,9.277,55.115,81.787
-0.399,0.278,-0.266,9.094,38.452,67.566
-0.118,0.310,-0.294,9.888,20.081,43.396
0.204,0.445,-0.227,8.423,5.127,22.461
-0.455,0.637,-0.075,2.014,4.456,16.235
-0.657,0.722,-0.361,0.000,13.489,14.648
-0.133,0.594,-0.124,14.099,22.827,-4.150
0.126,0.239,-0.095,21.057,29.114,-22.766
0.233,0.079,-0.083,20.325,34.424,-40.283
0.310,0.098,-0.092,19.531,26.428,-55.420
0.297,0.098,-0.113,17.029,15.564,-66.284
0.300,0.127,-0.132,12.390,2.075,-73.975
0.231,0.172,-0.136,7.751,-13.123,-85.571
0.154,0.222,-0.172,5.432,-27.161,-95.642
0.069,0.281,-0.166,4.150,-39.734,-106.750
0.040,0.311,-0.165,2.625,-50.171,-118.835
0.024,0.341,-0.157,0.610,-59.082,-130.737
0.012,0.359,-0.160,-1.343,-66.956,-142.273
-0.001,0.382,-0.153,-2.625,-72.327,-154.053
0.021,0.398,-0.178,-3.601,-76.355,-165.283
0.056,0.430,-0.203,-4.333,-80.688,-176.819
0.044,0.482,-0.236,-6.104,-82.031,-189.392
0.065,0.519,-0.258,-8.911,-80.444,-200.867
0.141,0.574,-0.283,-13.550,-80.811,-210.571
0.161,0.653,-0.318,-19.409,-83.069,-220.337
0.120,0.829,-0.319,-22.278,-83.008,-229.675
0.063,0.927,-0.324,-22.217,-75.317,-237.549
-0.004,0.901,-0.375,-25.269,-60.425,-242.676
-0.020,1.063,-0.513,-26.978,-48.828,-247.925
-0.163,1.208,-0.577,-25.391,-35.767,-256.897
-0.256,1.291,-0.585,-23.437,-19.958,-262.695
-0.298,1.371,-0.559,-24.658,-5.737,-268.066
-0.242,1.445,-0.526,-29.236,3.235,-273.682
0.001,1.495,-0.507,-36.987,2.258,-278.564
0.169,1.647,-0.498,-44.434,-8.606,-281.555
0.159,1.731,-0.501,-51.392,-21.729,-280.762
0.072,1.793,-0.516,-57.251,-33.325,-276.245
-0.062,1.844,-0.486,-59.387,-40.710,-269.653
-0.141,1.838,-0.426,-57.922,-46.387,-260.986
-0.223,1.893,-0.381,-53.772,-46.204,-249.695
-0.293,1.992,-0.360,-45.410,-40.283,-237.549
-0.374,2.014,-0.333,-33.691,-29.358,-226.074
-0.416,1.865,-0.323,-25.085,-21.729,-213.562
-0.437,1.660,-0.353,-19.897,-14.465,-198.303
-0.451,1.545,-0.367,-17.700,-10.437,-181.091
-0.440,1.443,-0.384,-20.691,-16.479,-164.795
-0.440,1.372,-0.387,-24.170,-23.743,-147.156
-0.555,1.354,-0.357,-25.635,-28.259,-127.930
-0.756,1.347,-0.315,-23.804,-25.085,-106.262
-0.976,1.342,-0.262,-19.714,-12.878,-81.177
-1.048,1.282,-0.207,-11.658,6.287,-52.124
-0.883,1.173,-0.184,-4.028,21.912,-21.118
-0.565,1.090,-0.209,-0.305,25.818,7.263
-0.274,1.058,-0.255,0.488,20.691,30.090
-0.113,1.043,-0.234,-0.793,9.766,46.021
-0.057,1.000,-0.185,-4.700,-5.615,58.228
-0.035,1.009,-0.132,-7.019,-22.400,70.618
-0.083,0.967,-0.070,-10.254,-40.527,81.482
-0.171,1.029,0.006,-10.132,-55.786,95.398
-0.195,1.009,-0.083,-11.475,-66.833,105.225
-0.098,0.985,-0.284,-15.747,-75.012,106.262
0.592,0.939,-0.662,-20.447,-74.036,89.478
1.062,0.947,-0.487,-16.602,-57.068,68.176
0.852,0.824,-0.372,-10.254,-31.006,64.270
0.665,0.932,-0.085,1.221,-19.653,69.824
0.026,0.880,-0.243,1.648,-25.085,86.182
0.065,1.202,-0.317,6.714,-32.898,95.642
-0.246,1.585,-0.142,9.583,-24.353,102.478
0.085,1.727,-0.271,10.620,-13.306,104.004
0.465,1.397,-0.344,3.296,-6.592,103.760
0.597,1.082,-0.464,-0.549,-8.057,104.797
0.323,0.876,-0.516,-3.357,-18.127,113.708
0.137,0.771,-0.639,-10.803,-33.203,117.798
0.133,0.940,-0.480,-15.015,-45.227,112.976
0.017,1.066,-0.457,-10.498,-46.875,106.567
0.151,0.995,-0.176,-4.822,-34.485,96.863
-0.378,0.827,-0.453,-11.780,-15.137,97.412
-0.388,1.013,-0.560,-4.578,9.888,89.844
-0.405,1.051,-0.339,6.226,40.222,77.759
-0.071,1.046,-0.231,8.301,62.744,70.313
0.009,0.950,-0.249,4.028,69.275,66.406

0.068,0.906,-0.417,4.395,8.423,25.818
0.306,0.828,-0.355,5.432,15.198,20.081
0.010,0.920,-0.426,1.648,14.038,23.499
0.002,0.966,-0.404,3.967,15.259,23.071
0.357,0.904,-0.361,3.845,18.005,20.447
-0.008,0.906,-0.436,0.610,14.587,25.940
-0.239,0.995,-0.415,2.686,13.184,28.992
0.255,0.953,-0.314,6.226,17.883,24.109
0.466,0.803,-0.420,1.648,19.226,22.705
-0.449,1.012,-0.487,-2.441,13.916,33.264
-0.063,1.144,-0.262,9.033,20.264,28.625
0.594,0.628,-0.393,2.502,20.691,29.114
-0.437,1.063,-0.503,0.427,11.963,41.626
0.133,0.931,-0.264,5.615,16.785,37.720
0.382,0.832,-0.380,1.648,14.343,41.809
-0.049,1.042,-0.366,2.380,12.268,44.189
-0.062,0.945,-0.383,1.465,12.451,47.791
0.149,0.936,-0.389,2.197,12.817,45.837
0.110,0.995,-0.370,2.258,14.404,47.791
-0.133,0.985,-0.425,2.441,15.930,50.964
0.033,0.910,-0.378,4.089,19.470,50.232
0.155,0.923,-0.383,2.930,20.630,53.040
-0.237,1.115,-0.379,4.822,21.484,57.190
0.362,0.868,-0.357,4.883,23.865,54.932
-0.063,1.041,-0.401,2.991,18.066,63.171
-0.219,1.152,-0.360,5.737,18.005,66.467
0.205,1.000,-0.385,6.836,18.494,66.284
-0.171,1.134,-0.408,6.958,17.029,70.374
-0.059,1.047,-0.406,7.324,19.104,72.266
-0.173,1.163,-0.433,9.399,21.423,74.829
0.051,1.083,-0.406,10.010,28.198,74.219
-0.160,1.142,-0.464,10.498,31.494,79.224
-0.129,1.143,-0.412,12.878,38.147,80.933
0.191,1.077,-0.451,14.954,43.335,81.604
-0.149,1.134,-0.546,12.939,43.213,87.280
0.018,1.152,-0.411,16.602,47.180,88.196
0.299,1.075,-0.451,16.846,45.715,91.248
-0.186,1.210,-0.525,15.686,41.077,98.877
-0.196,1.313,-0.463,18.921,44.617,102.783
0.301,1.221,-0.405,22.400,52.246,102.905
0.164,1.168,-0.483,18.372,54.199,109.985
-0.273,1.337,-0.471,17.578,57.190,118.286
0.342,1.338,-0.302,22.522,67.017,114.624
0.035,1.356,-0.523,17.944,65.247,124.695
0.087,1.616,-0.465,21.545,67.383,133.789
0.489,1.682,-0.508,24.231,67.017,139.160
0.364,1.702,-0.605,25.574,66.162,147.156
0.404,1.507,-0.613,23.376,68.665,150.757
0.262,1.361,-0.601,15.564,68.420,151.672
0.078,1.332,-0.506,9.155,70.313,146.851
-0.057,1.346,-0.482,5.554,71.289,141.418
-0.243,1.421,-0.535,3.845,66.101,139.465
-0.239,1.449,-0.563,7.690,64.148,135.437
-0.025,1.392,-0.492,13.428,66.528,127.136
0.110,1.272,-0.469,19.714,70.496,117.798
0.223,1.045,-0.405,25.452,76.172,108.643
0.190,0.789,-0.470,26.917,74.463,99.731
0.144,0.581,-0.432,25.879,72.632,88.074
-0.206,0.463,-0.380,21.729,71.411,78.552
-0.681,0.399,-0.380,18.188,68.420,71.228
-0.391,0.429,-0.379,22.034,60.669,53.528
-0.094,0.411,-0.310,22.339,53.528,31.982
-0.089,0.451,-0.287,18.921,54.932,14.282
0.020,0.533,-0.237,17.334,59.509,-0.061
-0.033,0.533,-0.169,14.771,59.753,-8.240
-0.148,0.493,-0.173,12.939,62.683,-12.756
-0.047,0.328,-0.119,12.817,65.735,-23.193
0.092,0.206,-0.046,13.428,67.810,-37.170
0.251,0.113,-0.027,11.353,61.951,-51.697
0.331,0.126,-0.043,5.432,48.218,-63.416
0.310,0.206,-0.039,-0.610,30.090,-71.045
0.183,0.279,-0.052,-5.371,14.954,-77.942
0.116,0.344,-0.061,-8.911,-1.831,-86.487
0.080,0.377,-0.060,-10.925,-18.982,-97.290
0.061,0.393,-0.053,-13.184,-35.156,-106.079
0.071,0.406,-0.051,-15.442,-51.331,-116.211
0.091,0.436,-0.042,-16.663,-67.078,-126.038
0.132,0.455,-0.073,-18.982,-83.679,-134.399
0.122,0.513,-0.104,-20.630,-99.304,-142.761
0.091,0.543,-0.159,-21.545,-110.718,-152.161
0.090,0.585,-0.196,-21.423,-118.469,-161.499
0.110,0.605,-0.231,-22.339,-126.038,-169.983
0.119,0.656,-0.279,-23.987,-130.981,-178.650
0.098,0.672,-0.330,-26.001,-133.057,-189.026
0.068,0.759,-0.377,-26.489,-132.751,-199.890
0.019,0.884,-0.405,-24.597,-129.700,-208.984
-0.024,0.985,-0.403,-22.827,-123.108,-220.032
-0.069,1.038,-0.425,-20.874,-111.511,-229.431
-0.074,1.121,-0.464,-15.259,-95.642,-234.802
-0.085,1.191,-0.539,-9.705,-79.773,-240.967
-0.119,1.261,-0.601,-6.653,-66.101,-245.422
-0.162,1.313,-0.637,-7.019,-56.458,-249.573
-0.151,1.372,-0.640,-11.353,-52.979,-254.150
-0.044,1.441,-0.647,-16.541,-54.688,-257.202
0.049,1.542,-0.634,-23.865,-59.204,-261.047
0.102,1.603,-0.613,-32.471,-65.796,-263.672
0.042,1.672,-0.593,-41.260,-72.021,-261.963
-0.050,1.734,-0.589,-46.509,-76.111,-256.348
-0.273,1.776,-0.517,-47.058,-75.256,-248.047
-0.424,1.755,-0.504,-45.410,-69.214,-237.671
-0.543,1.759,-0.526,-44.617,-61.462,-225.525
-0.651,1.795,-0.534,-42.786,-50.659,-211.243
-0.661,1.820,-0.550,-40.405,-42.297,-197.388
-0.671,1.750,-0.536,-37.476,-36.621,-185.181
-0.657,1.601,-0.475,-35.461,-34.607,-170.898
-0.638,1.489,-0.398,-33.752,-35.278,-152.954
-0.636,1.454,-0.357,-30.640,-36.499,-132.446
-0.653,1.412,-0.328,-25.696,-36.926,-111.938
-0.712,1.324,-0.305,-21.545,-34.668,-92.041
-0.758,1.261,-0.263,-18.616,-30.518,-71.411
-0.796,1.187,-0.243,-17.090,-25.818,-50.232
-0.825,1.152,-0.228,-15.564,-20.325,-26.978
-0.804,1.149,-0.211,-13.245,-16.724,-1.770
-0.742,1.141,-0.179,-10.437,-15.259,22.949
-0.634,1.164,-0.172,-8.484,-19.897,46.143
-0.588,1.169,-0.135,-6.714,-27.832,65.491
-0.541,1.174,-0.151,-5.798,-35.522,79.834
-0.317,1.202,-0.133,-5.371,-47.058,89.783
-0.350,1.204,-0.229,-5.615,-54.321,101.685
0.561,1.067,-0.538,-6.226,-51.697,92.407
1.599,1.011,-0.213,1.404,-40.955,66.467
1.216,0.796,0.030,-1.221,-19.165,59.631
0.350,0.818,-0.071,-9.338,-17.639,75.073
-0.021,1.105,-0.158,-8.484,-29.724,90.271
-0.393,1.336,-0.404,-13.428,-36.072,98.267
-0.135,1.709,-0.332,-8.850,-32.715,96.802
0.332,1.483,-0.383,-8.667,-23.682,88.989
0.509,1.096,-0.384,-12.024,-21.118,89.905
0.247,0.925,-0.502,-13.794,-15.625,93.262
0.245,0.928,-0.507,-13.245,-12.695,92.957
-0.009,0.937,-0.519,-19.043,-13.855,93.689
0.004,1.025,-0.596,-18.311,-16.174,92.102
0.182,1.029,-0.255,-9.521,-7.751,82.886
-0.124,0.847,-0.344,-12.756,1.892,82.031
-0.161,0.949,-0.477,-10.559,11.230,77.942
0.333,1.052,-0.261,2.563,23.743,61.462
-0.233,0.924,-0.153,-1.953,38.452,58.411
-0.391,1.087,-0.446,-3.845,47.791,58.533
0.751,1.044,-0.138,7.690,45.227,40.710
-0.208,0.809,-0.238,-9.521,44.678,44.983
0.325,1.050,-0.377,-6.958,37.109,43.701
0.582,0.937,-0.117,-5.310,26.184,34.180
0.079,0.842,-0.411,-15.686,22.583,36.987
0.170,0.877,-0.414,-14.832,15.869,33.997
0.287,0.960,-0.431,-14.771,15.198,30.762
0.274,0.932,-0.408,-13.062,15.869,29.358
0.089,0.887,-0.401,-8.667,19.836,26.001
0.111,0.918,-0.435,-5.432,23.560,21.423
0.244,0.877,-0.387,-1.892,27.893,15.320
-0.118,0.820,-0.391,-3.479,32.043,17.212
0.412,0.990,-0.387,2.686,34.790,9.949
0.302,0.756,-0.341,-1.099,32.471,10.071
-0.028,0.907,-0.336,-4.211,27.588,19.226
0.296,0.948,-0.374,-0.916,21.667,13.794
0.245,0.778,-0.332,-4.028,17.212,14.404
0.196,0.898,-0.350,-4.761,16.174,18.250
0.053,0.850,-0.387,-4.639,16.357,20.386
0.138,0.937,-0.377,-2.625,18.555,21.667
0.199,0.905,-0.374,-1.831,21.179,20.569
0.112,0.886,-0.386,-2.686,21.301,23.254
0.129,0.918,-0.420,-0.610,22.583,23.315
0.395,0.865,-0.379,0.977,22.461,20.020
0.070,0.906,-0.393,-1.282,20.081,26.001
0.092,0.917,-0.410,1.282,22.583,25.269
0.372,0.924,-0.328,2.319,24.048,21.790
0.064,0.860,-0.391,-2.136,19.714,29.053
-0.127,0.964,-0.371,-0.427,17.456,33.813
0.321,0.929,-0.354,3.052,18.677,27.466
0.490,0.769,-0.383,-2.136,15.747,26.978
-0.362,0.953,-0.435,-5.920,9.949,40.283
-0.008,1.119,-0.367,6.226,15.198,33.081
0.494,0.687,-0.369,0.366,16.602,29.541
-0.344,1.040,-0.425,-2.808,12.756,44.922
0.167,0.944,-0.422,4.761,15.808,34.424
0.312,0.788,-0.370,-1.038,14.343,37.537
-0.018,1.042,-0.394,1.038,15.381,37.903
-0.099,0.858,-0.443,0.854,16.052,35.461
0.096,0.931,-0.356,1.221,18.005,33.142
0.093,1.007,-0.348,1.343,21.057,30.273
-0.063,0.911,-0.387,0.671,21.362,32.776
0.048,0.898,-0.383,1.770,21.973,31.738
0.196,0.913,-0.383,0.671,22.217,33.203
-0.171,0.997,-0.406,2.441,21.973,38.696
0.435,0.776,-0.394,3.174,24.048,35.278
0.020,0.984,-0.448,0.549,22.034,45.227
-0.209,1.010,-0.399,5.005,22.705,49.316
0.305,0.905,-0.400,7.568,24.841,50.720
-0.082,0.999,-0.509,6.897,25.024,56.274
0.046,0.947,-0.437,7.751,25.635,57.861
-0.115,1.057,-0.410,9.705,26.306,62.256
0.144,0.967,-0.371,10.925,27.344,61.707
-0.013,1.029,-0.386,10.742,24.475,68.054
-0.113,1.066,-0.351,12.390,23.132,68.787
0.253,0.962,-0.374,12.817,23.926,67.383
-0.168,1.042,-0.497,10.193,22.217,73.364
-0.101,1.136,-0.355,13.672,24.658,73.181
0.260,1.047,-0.432,14.221,28.748,71.960
-0.193,1.168,-0.492,13.062,29.114,79.102
-0.344,1.200,-0.427,15.015,31.799,83.618
0.191,1.183,-0.362,18.860,37.292,81.116
0.253,1.069,-0.470,15.442,39.795,84.717
-0.576,1.216,-0.513,12.451,37.292,95.642
0.125,1.326,-0.168,20.813,46.509,90.942
0.267,1.080,-0.529,15.808,43.823,98.572
-0.532,1.487,-0.443,19.714,40.405,110.291
0.205,1.297,-0.310,21.301,48.828,107.178
0.003,1.265,-0.466,19.897,53.162,110.962
0.056,1.390,-0.302,21.729,62.988,112.427
0.107,1.495,-0.382,24.170,66.406,118.347
0.264,1.489,-0.416,23.987,66.223,123.169
0.416,1.561,-0.475,24.475,63.660,130.249
0.364,1.698,-0.562,24.719,61.401,138.733
0.501,1.643,-0.568,27.344,64.819,144.653
0.459,1.400,-0.617,22.217,67.322,148.621
0.276,1.426,-0.498,14.099,69.580,148.071
0.196,1.365,-0.480,6.958,71.228,143.799
-0.078,1.440,-0.459,6.775,70.313,143.982
-0.211,1.422,-0.485,9.338,69.580,141.418
-0.159,1.319,-0.544,10.254,62.317,140.137
-0.104,1.317,-0.557,10.986,52.246,136.902
0.060,1.243,-0.507,14.709,48.828,128.052
0.223,1.065,-0.497,17.517,45.593,117.798
0.270,0.872,-0.433,20.447,45.288,106.567
0.250,0.666,-0.354,22.156,47.546,94.849
0.077,0.479,-0.305,21.729,48.035,84.717
-0.537,0.319,-0.331,13.855,47.913,78.247
-0.495,0.393,-0.362,14.160,47.424,63.538
-0.118,0.392,-0.316,16.052,42.480,41.260
-0.029,0.438,-0.276,14.282,42.053,22.400
0.054,0.526,-0.219,15.991,43.640,7.385
0.044,0.542,-0.126,15.869,39.734,-2.991
-0.210,0.500,-0.246,12.817,38.269,-6.592
0.035,0.370,-0.160,15.198,34.546,-17.822
0.189,0.209,-0.092,17.639,28.931,-34.729
0.274,0.130,-0.086,17.944,22.461,-50.354
0.308,0.137,-0.110,16.235,14.526,-63.782
0.306,0.180,-0.129,12.878,3.174,-74.341
0.318,0.238,-0.156,9.094,-15.991,-85.632

-0.015,2.001,-0.633,-88.928,-10.254,-285.950
-0.261,2.141,-0.460,-88.806,-21.057,-271.545
-0.550,2.106,-0.274,-79.102,-18.372,-254.578
-0.670,2.087,-0.065,-63.049,-6.653,-232.239
-0.667,2.057,0.059,-42.236,9.338,-208.008
-0.512,1.919,0.023,-26.733,8.606,-184.753
-0.367,1.723,-0.051,-15.930,0.488,-161.926
-0.360,1.491,-0.147,-12.146,-6.775,-138.306
-0.216,1.255,-0.285,-21.240,-39.978,-116.272
-0.302,1.154,-0.359,-31.006,-68.848,-92.712
-0.468,1.160,-0.341,-36.926,-85.754,-67.566
-0.593,1.194,-0.253,-35.767,-96.375,-41.809
-0.669,1.192,-0.176,-29.236,-96.008,-18.005
-0.802,1.221,-0.138,-19.836,-86.182,3.723
-0.851,1.198,-0.169,-11.292,-71.472,22.461
-0.849,1.151,-0.217,-5.615,-56.335,38.635
-0.818,1.110,-0.251,-2.136,-37.842,51.941
-0.699,1.061,-0.330,-2.075,-25.024,64.819
-0.519,1.117,-0.376,-4.089,-25.269,77.881
-0.476,1.111,-0.330,-5.310,-22.766,86.853
-0.471,1.095,-0.263,-5.432,-24.475,97.290
-0.484,1.090,-0.250,-3.662,-27.771,108.459
0.053,0.959,-0.421,-3.174,-24.475,101.990
1.442,0.939,-0.408,1.709,-25.024,70.007
2.046,0.643,-0.333,0.183,-21.973,42.786
1.612,0.575,-0.240,-5.615,-11.597,38.879
0.869,0.765,0.039,-5.066,-11.841,45.898
-0.097,1.073,0.155,-0.671,-24.780,64.392
-0.641,1.075,-0.438,-8.301,-52.124,84.167
0.137,1.235,-0.436,-14.282,-70.313,81.604
-0.006,1.359,-0.363,-21.973,-59.204,79.407
0.209,1.583,-0.327,-16.541,-41.321,78.674
0.077,1.420,-0.192,-12.146,-21.973,77.332
0.106,1.291,-0.325,-10.742,-7.690,79.834
0.172,1.156,-0.372,-9.521,-1.221,81.299
0.340,1.000,-0.464,-11.902,-1.831,80.811
0.325,0.861,-0.518,-16.724,-5.554,81.116
0.236,0.810,-0.652,-17.639,-9.338,82.825
0.312,0.869,-0.593,-12.756,-10.681,77.515
-0.075,0.800,-0.581,-12.512,-7.446,73.792
0.276,0.983,-0.399,-3.723,-1.099,63.660
-0.017,0.916,-0.267,-4.578,8.728,60.181
-0.108,0.964,-0.379,-4.578,13.794,60.486
0.208,0.970,-0.256,-0.549,19.592,51.208
0.180,0.927,-0.259,-2.991,26.428,47.363
0.189,0.989,-0.189,-4.883,28.320,47.729
0.190,1.013,-0.262,-7.263,25.696,46.875
0.375,0.969,-0.224,-7.629,18.250,42.725
0.218,0.879,-0.330,-12.939,11.230,40.405
0.235,0.907,-0.391,-12.512,8.545,36.621
0.421,0.856,-0.339,-12.268,8.667,29.541
0.050,0.880,-0.385,-15.564,13.306,32.959
0.173,0.956,-0.457,-10.681,16.174,30.945
0.451,0.885,-0.333,-7.324,20.325,22.949
0.030,0.828,-0.425,-11.658,25.757,26.672
-0.158,0.950,-0.431,-9.644,29.114,30.151
0.415,0.970,-0.383,-2.930,31.494,20.569
0.567,0.771,-0.291,-5.920,35.095,15.808
-0.299,0.841,-0.363,-15.381,33.936,30.334
0.128,1.095,-0.394,-4.944,31.128,25.818
0.733,0.768,-0.244,-3.967,31.006,14.709
-0.196,0.836,-0.400,-13.733,24.353,31.677
0.244,0.925,-0.529,-5.127,19.836,22.766
0.384,0.834,-0.376,-4.700,24.353,19.470
-0.040,0.905,-0.454,-4.211,27.161,24.902
0.127,0.814,-0.459,-1.038,29.907,20.264
0.296,0.986,-0.359,0.977,30.945,21.423
0.177,0.851,-0.420,2.075,29.663,23.071
0.251,0.833,-0.429,2.258,29.053,23.010
0.203,0.970,-0.405,4.211,27.283,26.184
0.164,0.894,-0.398,5.310,26.733,24.780
0.060,0.862,-0.392,4.089,25.940,27.588
0.180,1.038,-0.374,8.911,27.405,25.513
0.327,0.726,-0.439,4.150,26.306,22.766
0.010,1.016,-0.337,4.150,23.926,31.372
-0.021,0.996,-0.339,6.958,24.109,30.273
0.276,0.805,-0.360,4.028,21.912,29.358
0.116,0.960,-0.375,2.991,19.348,33.447
0.059,0.901,-0.397,2.502,17.883,33.630
0.035,0.991,-0.368,4.456,16.724,34.912
0.151,0.870,-0.429,4.028,17.944,32.837
0.069,0.940,-0.451,3.906,17.395,35.278
-0.049,0.935,-0.435,5.066,17.395,35.217
0.255,0.895,-0.408,7.019,20.142,31.433
-0.030,0.901,-0.478,3.418,21.729,34.485
-0.089,0.989,-0.368,6.775,24.048,35.278
0.271,0.902,-0.317,7.874,26.367,33.020
0.031,0.840,-0.440,4.272,25.879,37.354
-0.149,0.927,-0.381,5.005,23.743,43.396
0.102,1.036,-0.308,9.399,24.231,43.579
0.409,0.802,-0.467,8.240,25.452,41.809
-0.104,0.874,-0.579,3.357,21.912,51.697
-0.373,1.221,-0.301,11.841,22.095,56.396
0.669,0.893,-0.283,14.282,26.489,48.950
-0.341,0.918,-0.585,7.080,20.569,63.782
-0.180,1.117,-0.198,15.198,21.667,62.988
0.475,0.937,-0.326,12.695,19.531,62.256
-0.266,1.007,-0.480,11.475,17.090,67.993
0.003,0.960,-0.341,13.000,17.456,69.458
0.120,1.146,-0.352,15.503,17.151,70.862
-0.064,1.042,-0.461,15.503,18.921,72.021
-0.031,1.001,-0.510,16.174,20.386,74.829
-0.051,1.173,-0.377,18.188,24.414,75.867
0.015,1.142,-0.396,19.409,28.931,75.500
-0.228,1.058,-0.526,17.944,29.053,81.055
0.084,1.247,-0.251,23.560,35.156,79.041
0.024,1.026,-0.493,19.043,35.706,82.520
-0.327,1.136,-0.436,20.203,36.621,88.440
-0.006,1.254,-0.227,23.193,41.931,87.585
-0.048,1.149,-0.436,22.766,42.053,90.820
-0.120,1.282,-0.393,25.635,44.434,94.360
-0.128,1.232,-0.457,24.353,46.387,98.816
-0.001,1.339,-0.382,28.320,52.979,101.501
0.117,1.291,-0.382,30.151,59.692,105.835
0.026,1.346,-0.394,32.837,62.805,113.037
0.235,1.420,-0.344,34.302,64.148,117.920
0.301,1.484,-0.434,32.959,59.570,124.939
0.221,1.651,-0.538,33.020,54.993,132.874
0.520,1.571,-0.556,33.875,59.448,136.902
0.527,1.397,-0.575,27.893,61.951,142.456
0.206,1.380,-0.521,18.494,61.707,144.409
-0.047,1.549,-0.421,16.602,68.481,143.860
0.087,1.514,-0.418,18.311,77.576,138.611
0.097,1.457,-0.425,17.395,76.599,137.085
-0.192,1.443,-0.469,19.409,68.787,141.541
-0.105,1.324,-0.541,22.095,58.838,141.418
0.112,1.207,-0.583,18.372,42.236,136.780
0.106,1.224,-0.548,19.714,28.748,131.714
0.132,1.083,-0.469,24.292,29.907,123.413
0.226,0.844,-0.480,26.245,31.921,114.563
0.227,0.672,-0.389,27.588,32.043,103.149
-0.096,0.534,-0.305,25.879,36.377,91.125
-0.678,0.393,-0.347,19.409,39.185,84.595
-0.580,0.412,-0.367,18.127,35.645,70.129
-0.121,0.408,-0.287,17.212,27.954,46.692
-0.006,0.457,-0.276,14.709,27.039,26.245
0.022,0.522,-0.254,15.747,28.198,11.414
0.151,0.548,-0.182,19.226,25.208,-1.160
0.020,0.478,-0.160,17.639,21.240,-7.202
0.009,0.382,-0.187,16.052,16.602,-12.390
0.119,0.266,-0.146,16.968,11.047,-24.658
0.188,0.144,-0.129,16.724,5.005,-38.879
0.224,0.115,-0.144,14.099,-4.089,-52.002
0.170,0.144,-0.149,9.888,-15.198,-64.636
0.146,0.188,-0.161,6.287,-26.489,-76.843
0.073,0.250,-0.169,2.869,-36.438,-89.233
0.007,0.308,-0.188,0.671,-41.809,-100.525
-0.019,0.360,-0.198,-0.854,-45.288,-111.206
-0.022,0.380,-0.209,-2.441,-49.255,-121.887
-0.001,0.383,-0.225,-4.395,-54.443,-132.141
-0.008,0.403,-0.222,-6.165,-58.594,-142.883
0.022,0.427,-0.236,-7.812,-63.660,-153.687
0.019,0.466,-0.241,-10.254,-69.885,-164.246
0.008,0.503,-0.264,-12.329,-73.303,-174.805
0.031,0.528,-0.281,-15.320,-75.684,-185.303
0.095,0.574,-0.309,-18.311,-77.332,-197.510
0.162,0.629,-0.328,-22.522,-79.956,-209.778
0.198,0.713,-0.335,-23.499,-79.590,-218.872
0.205,0.788,-0.367,-22.522,-76.782,-228.516
0.190,0.887,-0.385,-20.447,-68.420,-238.892
0.179,0.994,-0.415,-19.653,-61.523,-245.972
0.137,1.041,-0.450,-20.691,-48.340,-255.310
0.224,1.124,-0.486,-27.649,-43.945,-262.085
0.188,1.273,-0.541,-34.668,-46.143,-265.686
0.081,1.461,-0.540,-37.903,-47.119,-266.785
0.047,1.652,-0.577,-41.016,-48.096,-271.118
0.021,1.752,-0.600,-44.800,-52.246,-274.170
-0.054,1.766,-0.605,-50.781,-56.030,-272.888
-0.025,1.752,-0.581,-59.753,-65.430,-269.226
-0.120,1.781,-0.578,-68.298,-78.430,-264.771
-0.265,1.832,-0.557,-71.167,-84.229,-259.277
-0.392,1.930,-0.531,-69.397,-83.130,-254.456
-0.424,2.025,-0.510,-60.730,-74.036,-245.422
-0.526,1.969,-0.536,-48.279,-56.763,-228.210
-0.726,1.805,-0.577,-38.574,-27.710,-210.632
-0.746,1.710,-0.591,-33.264,-3.113,-194.458
-0.767,1.700,-0.514,-29.419,12.207,-178.711
-0.735,1.584,-0.432,-27.283,23.376,-161.072
-0.649,1.415,-0.328,-26.917,26.428,-143.127
-0.591,1.288,-0.264,-26.917,20.508,-125.916
-0.634,1.252,-0.214,-25.635,10.071,-107.300
-0.748,1.227,-0.174,-23.376,5.371,-86.609
-0.796,1.215,-0.174,-19.287,3.906,-62.744
-0.807,1.172,-0.085,-13.489,5.615,-37.109
-0.758,1.126,-0.042,-8.850,7.080,-11.475
-0.586,1.098,-0.028,-4.883,4.028,12.146
-0.417,1.055,-0.073,-4.578,-5.127,33.264
-0.226,1.101,-0.163,-7.446,-18.860,50.415
-0.240,1.146,-0.136,-8.057,-31.616,66.650
-0.291,1.188,-0.175,-6.836,-36.682,78.857
-0.382,1.149,-0.096,-6.042,-50.110,95.825
-0.266,1.023,-0.391,-8.362,-54.260,104.675
0.581,0.916,-0.776,-15.747,-59.998,92.651
1.418,0.984,-0.444,-9.399,-39.124,63.721
1.450,0.989,0.192,4.333,-12.024,55.359
0.729,0.899,0.227,7.690,-7.568,72.754
0.265,1.002,-0.113,3.784,-23.315,91.797
-0.111,1.194,-0.378,-7.324,-44.556,106.079
-0.229,1.640,-0.395,-11.597,-47.363,110.168
0.050,1.669,-0.358,-7.446,-36.316,105.591
0.454,1.319,-0.365,-9.644,-30.823,101.501
0.237,0.998,-0.598,-17.151,-27.893,103.027
0.194,1.044,-0.527,-16.235,-26.978,103.516
-0.231,1.048,-0.588,-19.714,-27.283,108.032
-0.209,1.142,-0.604,-15.320,-24.597,104.797
-0.028,1.059,-0.356,-4.578,-13.245,91.431
0.108,0.792,-0.447,-3.540,-3.174,82.397
-0.094,0.694,-0.535,-7.202,5.127,78.552
-0.085,0.938,-0.488,0.916,17.578,69.519
-0.134,1.016,-0.322,9.460,31.555,59.814
-0.023,0.972,-0.354,9.277,40.161,52.429
0.403,0.944,-0.348,8.606,43.213,43.579
0.236,0.860,-0.245,0.366,43.762,41.870
0.085,1.006,-0.296,-2.380,39.307,45.044
0.595,0.965,-0.227,1.282,28.931,36.438
0.180,0.808,-0.267,-6.836,24.658,37.720
-0.059,0.941,-0.394,-9.644,19.226,42.358
0.331,0.980,-0.487,-4.150,13.855,33.813
0.615,0.817,-0.369,-3.296,14.771,24.292
-0.396,0.832,-0.423,-10.620,19.531,36.743
-0.077,1.107,-0.546,1.221,21.057,32.837
0.706,0.769,-0.366,6.836,25.513,15.686
-0.419,0.800,-0.423,-3.784,34.119,29.968
0.169,1.027,-0.494,7.019,36.682,23.376
0.449,0.818,-0.310,6.531,41.931,15.381
-0.008,0.865,-0.372,3.357,39.978,24.536
0.185,0.817,-0.422,4.456,33.936,18.555
0.291,0.943,-0.333,2.319,31.860,16.479
0.163,0.845,-0.353,1.831,29.114,17.944
0.207,0.817,-0.347,1.038,26.978,16.235
0.115,0.934,-0.359,0.488,26.428,16.235
0.181,0.875,-0.388,1.648,25.696,14.709
0.022,0.870,-0.377,-0.122,25.085,16.724
0.177,1.000,-0.415,3.662,27.344,13.977
0.369,0.749,-0.461,1.038,25.085,9.949
-0.032,1.005,-0.323,0.671,23.010,19.104
-0.060,0.978,-0.424,3.784,24.719,16.541
0.291,0.838,-0.376,3.357,25.269,13.367

-0.146,1.044,-0.460,8.606,18.616,65.430
0.143,1.016,-0.361,12.268,22.400,65.674
0.022,0.941,-0.437,11.292,20.447,70.740
-0.123,0.993,-0.409,11.536,18.982,72.571
0.139,1.063,-0.328,13.367,20.996,71.045
0.038,1.022,-0.436,12.207,20.569,73.059
-0.225,1.158,-0.381,12.756,21.179,74.890
0.181,1.104,-0.307,15.076,25.635,72.327
-0.036,1.021,-0.452,11.353,23.865,76.233
-0.299,1.159,-0.376,8.972,23.499,80.383
-0.247,1.318,-0.304,13.062,30.945,80.627
0.323,1.094,-0.282,14.221,38.025,75.928
-0.212,1.098,-0.457,7.874,34.363,84.473
-0.583,1.355,-0.356,10.803,38.269,89.539
0.509,1.273,-0.267,17.212,45.898,84.351
-0.163,1.186,-0.613,10.681,40.222,98.206
-0.264,1.423,-0.338,14.587,45.349,101.990
0.366,1.253,-0.310,16.724,54.626,101.563
-0.039,1.320,-0.407,16.663,55.847,109.375
0.078,1.357,-0.386,17.578,56.702,115.784
0.127,1.501,-0.433,18.494,57.861,121.094
0.363,1.593,-0.489,19.348,61.646,124.146
0.426,1.610,-0.632,19.409,62.195,131.897
0.394,1.590,-0.725,19.104,65.918,139.038
0.404,1.511,-0.687,16.174,72.693,141.479
0.202,1.385,-0.711,8.057,75.989,143.494
0.057,1.498,-0.570,5.737,82.092,141.418
0.088,1.420,-0.530,3.357,87.585,136.414
-0.119,1.429,-0.499,3.235,88.318,136.475
-0.204,1.397,-0.522,5.188,83.618,135.559
-0.099,1.284,-0.583,5.310,77.393,130.615
0.027,1.250,-0.531,7.935,73.975,122.437
0.197,1.139,-0.443,14.221,74.951,112.061
0.303,0.985,-0.381,20.325,76.538,101.929
0.293,0.789,-0.351,23.315,77.271,92.712
0.219,0.600,-0.291,23.865,75.623,84.717
-0.214,0.338,-0.334,16.052,70.923,79.834
-0.461,0.315,-0.399,7.996,66.406,72.144
-0.125,0.433,-0.293,11.047,58.472,52.063
0.059,0.447,-0.242,10.620,49.377,32.593
0.175,0.609,-0.102,8.850,41.321,19.165
-0.446,0.617,-0.297,0.244,39.978,16.418
-0.198,0.613,-0.221,4.456,40.894,5.676
0.105,0.403,-0.081,12.329,40.222,-11.292
0.269,0.216,-0.031,13.489,34.851,-26.001
0.325,0.189,-0.037,12.268,24.231,-39.551
0.288,0.196,-0.084,9.094,11.536,-50.598
0.272,0.243,-0.105,5.859,-2.747,-59.937
0.257,0.273,-0.093,2.747,-19.775,-69.885
0.198,0.291,-0.114,0.000,-36.499,-79.529
0.123,0.312,-0.137,-2.441,-52.307,-89.844
0.060,0.343,-0.155,-4.028,-64.087,-100.342
0.015,0.370,-0.154,-5.188,-73.608,-111.877
0.002,0.392,-0.158,-5.981,-81.238,-123.901
-0.001,0.415,-0.163,-6.836,-86.853,-135.681
0.012,0.430,-0.183,-7.751,-90.881,-146.729
0.002,0.475,-0.206,-8.057,-92.407,-158.142
0.038,0.486,-0.234,-8.423,-92.957,-170.105
0.075,0.516,-0.249,-9.399,-93.567,-181.763
0.118,0.561,-0.278,-11.169,-95.154,-192.993
0.140,0.616,-0.320,-13.550,-95.947,-204.895
0.171,0.681,-0.351,-16.785,-96.619,-215.454
0.170,0.759,-0.397,-19.470,-94.482,-223.816
0.151,0.872,-0.423,-20.447,-89.539,-232.178
0.114,1.001,-0.429,-18.982,-81.543,-240.112
0.109,1.094,-0.453,-17.822,-73.181,-249.207
0.120,1.187,-0.475,-17.151,-67.017,-256.592
0.066,1.299,-0.473,-15.869,-60.730,-261.536
0.040,1.366,-0.525,-16.785,-54.382,-267.639
0.110,1.428,-0.602,-20.752,-53.772,-273.499
0.164,1.471,-0.650,-28.442,-57.434,-277.588
0.215,1.621,-0.672,-37.231,-67.627,-278.748
0.104,1.777,-0.667,-42.542,-76.721,-279.175
-0.069,1.884,-0.611,-45.227,-77.026,-278.137
-0.126,1.886,-0.537,-46.753,-75.928,-273.437
-0.193,2.019,-0.459,-44.128,-72.205,-266.235
-0.300,2.075,-0.437,-35.156,-61.462,-255.737
-0.420,2.026,-0.489,-28.381,-49.866,-243.347
-0.547,1.968,-0.593,-24.536,-36.926,-229.004
-0.644,1.787,-0.625,-25.452,-22.705,-210.571
-0.682,1.677,-0.579,-29.480,-14.587,-189.087
-0.711,1.592,-0.568,-33.569,-14.771,-168.152
-0.775,1.486,-0.471,-36.560,-17.456,-148.560
-0.919,1.464,-0.336,-36.072,-16.541,-128.967
-1.141,1.484,-0.282,-29.114,-7.202,-106.995
-1.272,1.401,-0.230,-17.212,11.536,-79.224
-1.191,1.231,-0.073,-6.348,25.574,-42.908
-0.927,1.099,-0.064,0.122,28.809,-6.653
-0.545,1.037,-0.199,1.221,19.714,24.719
-0.287,1.048,-0.264,-1.953,7.202,47.729
-0.208,1.108,-0.306,-4.089,-5.249,65.735
-0.221,1.094,-0.224,-5.798,-20.752,79.224
-0.313,1.109,-0.135,-6.165,-33.936,90.759
-0.292,1.069,-0.134,-7.263,-44.739,101.257
-0.340,1.074,-0.111,-8.484,-54.871,111.816
0.351,0.955,-0.429,-11.292,-57.983,105.652
1.177,0.963,-0.380,-8.545,-48.218,80.872
1.324,0.973,-0.119,-3.418,-29.724,72.021
0.809,0.925,0.054,-0.549,-15.747,71.228
0.089,1.040,0.052,-1.892,-16.785,79.468
-0.094,1.158,-0.318,-0.732,-26.917,87.708
-0.202,1.409,-0.239,-1.953,-26.917,90.759
-0.046,1.559,-0.306,-0.427,-20.752,90.271
0.516,1.309,-0.321,-4.517,-21.484,85.754
0.318,1.079,-0.458,-12.024,-21.179,90.210
-0.141,1.172,-0.492,-12.634,-14.954,97.534
0.310,1.110,-0.532,-7.996,-10.193,90.271
0.409,0.894,-0.459,-14.648,-12.024,86.304
-0.437,0.858,-0.763,-24.658,-17.456,100.708
0.403,1.070,-0.604,-7.812,-20.508,88.257
-0.057,0.791,-0.394,-6.104,-8.606,79.346
-0.176,0.950,-0.532,-1.038,5.310,78.186
0.092,0.955,-0.358,6.958,15.991,65.308
-0.117,0.966,-0.377,5.371,31.799,57.678
-0.107,1.025,-0.323,7.629,41.443,53.162
0.206,1.024,-0.229,7.019,49.500,43.945
0.385,0.996,-0.166,3.662,49.683,39.490
0.215,0.918,-0.173,-2.686,38.574,39.734
0.334,0.950,-0.280,-5.127,28.076,38.452
0.475,0.911,-0.266,-7.202,21.240,34.607
-0.104,0.888,-0.428,-13.184,19.592,37.598
0.557,0.974,-0.380,-5.310,18.982,27.832
0.082,0.867,-0.387,-9.583,21.790,27.771
-0.171,0.983,-0.474,-5.249,21.606,30.212
0.358,0.912,-0.397,2.869,26.001,18.860
0.027,0.791,-0.393,0.305,30.090,18.677
0.227,0.900,-0.376,3.235,31.860,16.479
0.015,0.872,-0.363,1.831,34.302,16.418
0.287,0.924,-0.317,3.235,34.180,14.160
0.229,0.804,-0.316,-0.793,30.212,14.465
0.169,0.869,-0.318,-2.930,26.184,16.968
0.312,0.899,-0.324,-1.343,23.437,14.038
0.360,0.780,-0.347,-4.150,19.775,12.085
0.015,0.934,-0.318,-4.456,18.982,17.090
0.202,0.883,-0.406,-1.892,19.836,11.963
0.408,0.837,-0.342,-2.747,18.311,9.399
0.039,0.911,-0.391,-4.822,15.503,16.418
-0.152,0.964,-0.402,-2.441,14.832,18.433
0.403,0.934,-0.346,0.610,16.296,10.925
0.482,0.803,-0.375,-3.601,13.733,10.437
-0.333,0.946,-0.394,-5.554,11.719,23.010
-0.056,1.076,-0.347,3.174,18.250,17.883
0.664,0.734,-0.352,-1.648,14.526,10.559
-0.248,0.918,-0.411,-7.629,7.568,27.710
0.077,0.978,-0.430,0.244,10.986,20.630
0.455,0.876,-0.324,-1.648,6.287,20.020
-0.031,0.895,-0.441,-2.502,4.150,26.550
0.075,0.866,-0.429,0.916,6.226,25.574
0.240,0.984,-0.362,0.854,6.348,27.222
0.021,0.858,-0.438,-0.488,8.911,27.222
0.199,0.845,-0.428,0.122,11.414,29.175
0.114,0.958,-0.383,-0.549,11.780,32.898
0.138,0.884,-0.407,-0.122,15.137,32.776
0.071,0.831,-0.417,-1.831,15.747,38.940
0.141,1.015,-0.371,1.953,18.005,39.185
0.301,0.724,-0.462,-1.770,18.860,39.185
-0.074,1.025,-0.405,-2.197,16.907,46.509
-0.058,1.083,-0.348,3.113,18.860,47.363
0.211,0.871,-0.442,1.953,20.874,47.363
-0.005,1.050,-0.441,3.601,21.912,49.744
-0.010,0.905,-0.425,2.930,22.217,51.331
0.018,1.058,-0.384,7.751,23.743,52.490
0.125,0.873,-0.437,7.080,24.414,53.711
0.021,0.981,-0.414,8.179,22.217,58.716
0.011,0.998,-0.377,10.315,21.973,59.875
0.297,0.845,-0.392,10.193,21.973,60.791
-0.080,0.971,-0.459,9.277,18.127,67.810
0.065,1.003,-0.351,11.963,17.334,67.383
0.236,0.903,-0.456,10.193,16.968,68.115
-0.192,1.085,-0.453,9.033,16.113,72.571
-0.329,1.141,-0.391,11.108,18.311,74.463
0.219,1.045,-0.363,15.198,27.100,69.336
0.100,0.975,-0.488,9.888,28.870,73.059
-0.693,1.245,-0.467,8.850,27.649,80.811
0.291,1.248,-0.182,17.456,38.452,72.571
0.018,0.998,-0.549,11.292,35.706,81.482
-0.565,1.334,-0.333,13.367,36.011,86.914
0.395,1.162,-0.275,16.174,40.466,83.557
-0.018,1.106,-0.535,12.939,35.217,90.881
-0.050,1.285,-0.396,15.381,35.828,94.543
0.098,1.281,-0.463,17.822,39.368,96.985
0.027,1.210,-0.435,16.663,45.837,97.778
0.001,1.213,-0.415,16.968,52.673,101.440
0.016,1.341,-0.350,20.020,56.519,107.056
0.177,1.360,-0.330,21.240,58.105,109.436
0.019,1.355,-0.481,19.165,54.993,115.112
0.156,1.575,-0.442,23.621,58.594,117.493
0.354,1.555,-0.510,24.536,62.500,120.667
0.281,1.628,-0.614,24.658,63.538,128.418
0.378,1.677,-0.574,28.381,68.726,134.949
0.339,1.438,-0.603,27.710,73.547,140.503
0.226,1.329,-0.511,19.836,76.538,142.639
0.086,1.294,-0.473,10.742,76.355,141.602
-0.118,1.392,-0.440,9.827,75.928,140.015
-0.099,1.358,-0.467,11.658,73.059,137.634
-0.089,1.333,-0.547,10.498,61.768,137.695
-0.061,1.312,-0.517,13.428,56.946,132.690
0.128,1.206,-0.482,19.348,58.777,123.596
0.313,1.012,-0.440,23.865,60.181,112.610
0.263,0.816,-0.395,24.841,60.730,102.478
0.195,0.644,-0.388,24.841,62.927,92.468
0.138,0.487,-0.358,21.912,59.082,83.313
-0.484,0.349,-0.353,13.000,55.969,79.346
-0.476,0.379,-0.433,8.545,50.659,69.885
-0.103,0.439,-0.329,9.460,42.236,50.232
0.050,0.489,-0.326,7.446,37.048,31.555
0.128,0.584,-0.255,7.751,34.302,15.991
0.006,0.627,-0.121,7.812,30.212,5.920
-0.331,0.584,-0.239,4.944,30.701,3.906
-0.096,0.452,-0.165,8.728,30.457,-6.714
0.088,0.253,-0.104,11.963,28.809,-23.071
0.211,0.154,-0.102,11.719,25.452,-39.917
0.239,0.185,-0.123,10.437,20.569,-54.199
0.220,0.237,-0.136,8.301,10.986,-65.002
0.239,0.290,-0.145,6.714,-4.639,-75.928
0.209,0.310,-0.165,4.578,-19.104,-85.938
0.152,0.341,-0.184,1.953,-32.471,-97.412
0.074,0.376,-0.188,0.488,-42.419,-107.910
0.030,0.392,-0.189,-1.038,-49.561,-119.080
0.055,0.409,-0.188,-2.991,-57.129,-130.737
0.069,0.443,-0.186,-4.150,-64.026,-142.090
0.041,0.473,-0.193,-4.578,-68.909,-153.442
0.070,0.491,-0.211,-5.188,-73.120,-164.612
0.113,0.513,-0.236,-6.592,-78.552,-176.025
0.131,0.551,-0.267,-8.850,-83.862,-187.378
0.151,0.593,-0.289,-11.230,-88.745,-197.632
0.163,0.644,-0.323,-13.672,-92.407,-207.214
0.136,0.708,-0.369,-16.602,-91.858,-216.980
0.085,0.793,-0.394,-19.104,-86.060,-226.929
0.071,0.908,-0.447,-20.142,-77.820,-235.107
0.025,1.054,-0.444,-19.531,-68.359,-243.958
0.017,1.080,-0.452,-18.799,-59.326,-247.559
0.073,1.129,-0.496,-21.301,-51.758,-250.427
0.010,1.271,-0.544,-23.315,-44.128,-255.066
-0.100,1.390,-0.595,-24.902,-32.959,-259.766
-0.088,1.500,-0.647,-28.320,-25.330,-266.174
-0.083,1.571,-0.692,-33.997,-22.949,-269.775
-0.050,1.613,-0.714,-43.213,-23.437,-272.522

0.562,0.870,-0.086,-10.315,-29.785,64.392
-0.048,1.204,0.154,-5.249,-37.659,75.439
-0.382,1.139,-0.410,-11.230,-54.016,90.454
0.063,1.333,-0.304,-13.062,-56.763,87.341
-0.018,1.514,-0.176,-11.230,-45.471,85.388
0.004,1.486,-0.257,-10.193,-33.630,84.595
0.148,1.349,-0.351,-11.353,-18.433,79.956
0.236,1.241,-0.353,-8.545,-1.282,78.918
0.069,1.148,-0.404,-7.874,6.042,85.693
0.240,0.969,-0.554,-9.888,3.723,86.426
0.314,0.834,-0.518,-11.719,-1.709,83.496
0.302,0.717,-0.755,-12.146,-7.446,82.275
0.275,0.736,-0.571,-8.545,-7.812,75.134
-0.187,0.817,-0.619,-8.179,-2.563,74.158
-0.066,1.056,-0.475,1.404,6.470,67.993
0.052,0.995,-0.280,6.226,16.724,60.120
0.152,0.948,-0.313,3.967,24.719,55.481
0.020,0.924,-0.327,0.549,31.311,54.382
0.193,1.012,-0.277,2.502,37.231,51.392
0.201,0.990,-0.219,2.014,38.513,48.828
0.150,0.953,-0.258,-1.160,34.912,48.157
0.500,0.949,-0.292,-1.404,26.672,42.603
0.230,0.851,-0.306,-8.362,23.132,41.138
-0.013,0.948,-0.428,-10.437,23.437,43.701
0.386,0.948,-0.422,-4.395,25.757,34.485
0.168,0.832,-0.387,-3.845,31.006,31.006
-0.111,0.937,-0.439,-2.625,30.518,34.180
0.134,0.958,-0.518,2.808,31.189,27.954
0.605,0.844,-0.368,6.653,35.400,15.808
-0.111,0.833,-0.333,0.244,35.400,23.132
-0.246,1.099,-0.402,5.371,35.339,25.085
0.780,0.820,-0.319,9.521,35.217,8.728
-0.038,0.763,-0.271,-2.136,29.236,20.691
0.054,1.017,-0.425,2.380,23.071,19.836
0.478,0.872,-0.301,1.587,22.217,11.902
0.040,0.823,-0.346,-2.014,17.639,18.982
0.224,0.879,-0.420,0.427,16.663,14.526
0.201,0.924,-0.390,0.305,16.663,14.221
0.128,0.847,-0.368,0.977,15.808,13.123
0.257,0.873,-0.401,0.610,15.320,10.803
0.107,0.936,-0.389,0.488,13.794,12.024
0.133,0.869,-0.378,0.244,12.146,10.315
0.225,0.883,-0.345,-0.183,12.695,11.230
-0.052,1.020,-0.376,1.038,13.428,12.817
0.501,0.776,-0.381,0.427,13.794,7.080
0.117,0.910,-0.329,-2.319,13.977,15.991
-0.151,0.928,-0.387,-1.160,12.573,18.066
0.403,0.865,-0.362,-1.465,10.803,16.235
0.148,0.856,-0.397,-2.686,8.606,23.743
0.180,0.839,-0.405,-2.686,7.874,24.658
0.009,0.926,-0.386,-2.563,7.874,30.090
0.211,0.886,-0.389,-0.244,12.207,30.212
0.165,0.909,-0.406,0.244,14.832,34.729
0.017,0.916,-0.439,1.343,16.235,38.513
0.265,0.931,-0.394,4.089,19.470,37.354
0.250,0.793,-0.487,1.831,19.409,40.161
0.007,0.951,-0.421,3.540,20.020,44.434
0.176,0.953,-0.354,5.066,21.912,40.771
0.151,0.922,-0.413,3.540,23.682,41.138
-0.175,1.005,-0.393,3.845,26.001,45.654
-0.139,1.080,-0.298,7.568,29.114,45.471
0.433,0.851,-0.398,8.606,31.433,39.734
0.091,0.781,-0.555,2.319,28.687,46.631
-0.552,1.112,-0.327,7.812,29.114,55.969
0.565,0.952,-0.175,15.137,34.058,46.875
-0.105,0.770,-0.722,5.432,27.832,58.472
-0.269,1.124,-0.258,14.160,29.419,62.805
0.468,0.916,-0.389,13.367,29.053,59.753
-0.108,0.992,-0.505,12.939,26.550,66.162
0.017,0.952,-0.375,13.245,27.466,67.749
0.121,1.149,-0.342,15.747,26.794,69.519
-0.013,1.061,-0.393,15.259,27.771,69.580
-0.039,1.005,-0.421,14.465,27.649,71.777
-0.025,1.135,-0.293,16.541,28.442,75.134
0.105,1.094,-0.291,17.273,29.846,75.073
-0.248,1.031,-0.499,15.503,28.320,81.055
0.197,1.211,-0.239,21.973,31.921,79.224
-0.025,1.052,-0.598,17.395,31.189,83.801
-0.326,1.189,-0.445,19.592,34.729,89.417
0.116,1.232,-0.324,23.865,39.063,90.332
-0.012,1.156,-0.470,23.804,40.100,94.482
-0.017,1.230,-0.428,23.743,41.931,99.609
-0.110,1.282,-0.504,23.437,42.908,104.614
0.098,1.319,-0.396,25.818,49.377,106.384
0.102,1.380,-0.410,26.062,53.467,112.122
0.022,1.465,-0.349,30.945,58.044,119.690
0.363,1.529,-0.263,35.400,60.974,123.047
0.323,1.527,-0.430,31.799,57.556,131.531
0.296,1.734,-0.436,31.677,53.345,139.832
0.573,1.677,-0.564,29.968,55.481,143.494
0.561,1.508,-0.582,24.048,60.669,151.001
0.343,1.480,-0.530,17.212,58.167,156.799
0.255,1.611,-0.420,14.404,58.105,156.311
0.326,1.594,-0.428,16.113,60.486,153.381
0.109,1.513,-0.443,16.357,56.824,155.090
-0.068,1.443,-0.480,19.836,49.438,155.579
0.017,1.292,-0.517,19.714,38.635,150.635
-0.109,1.249,-0.584,15.991,23.437,149.597
-0.085,1.208,-0.569,17.090,18.066,142.883
0.200,1.048,-0.542,19.897,17.944,132.874
0.300,0.870,-0.444,22.339,19.531,121.765
0.280,0.688,-0.334,24.475,24.780,106.873
0.071,0.507,-0.281,23.499,28.442,92.773
-0.647,0.335,-0.277,15.991,32.410,87.769
-0.522,0.378,-0.327,17.029,27.710,73.303
-0.100,0.349,-0.299,19.653,20.813,47.424
0.051,0.371,-0.294,17.090,18.433,24.719
0.166,0.511,-0.191,19.287,15.991,8.545
0.012,0.533,-0.107,18.738,11.658,0.061
-0.228,0.488,-0.289,15.442,10.620,-1.282
0.026,0.349,-0.197,20.020,10.132,-14.343
0.195,0.135,-0.146,24.231,8.850,-32.166
0.295,0.036,-0.137,24.658,4.578,-48.706
0.257,0.055,-0.146,22.034,-3.052,-63.538
0.220,0.121,-0.170,18.555,-11.597,-77.515
0.188,0.186,-0.196,15.503,-20.630,-89.478
0.117,0.251,-0.198,12.146,-28.015,-101.624
0.049,0.326,-0.204,10.803,-33.325,-112.671
0.027,0.364,-0.230,9.827,-38.879,-123.474
0.027,0.399,-0.242,8.667,-44.739,-134.827
0.036,0.426,-0.230,7.202,-49.866,-146.606
0.070,0.447,-0.238,5.676,-55.237,-157.593
0.083,0.472,-0.247,3.784,-59.814,-168.213
0.087,0.496,-0.267,1.282,-62.988,-179.321
0.097,0.542,-0.294,-1.221,-64.514,-190.186
0.128,0.573,-0.318,-4.761,-67.627,-201.416
0.154,0.609,-0.356,-9.155,-71.045,-210.876
0.158,0.667,-0.387,-14.099,-72.815,-220.520
0.142,0.737,-0.425,-18.372,-71.045,-229.675
0.138,0.820,-0.445,-22.522,-66.833,-240.479
0.122,0.943,-0.464,-24.414,-59.631,-249.512
0.120,1.030,-0.513,-24.475,-50.415,-254.578
0.145,1.100,-0.517,-28.015,-44.067,-259.399
0.083,1.233,-0.490,-31.494,-37.354,-264.160
0.017,1.320,-0.495,-33.447,-26.489,-272.156
0.078,1.389,-0.538,-35.950,-17.578,-279.297
0.125,1.463,-0.595,-43.030,-13.062,-285.828
0.184,1.569,-0.645,-53.345,-14.771,-290.955
0.206,1.731,-0.703,-64.209,-23.437,-293.579
0.264,1.829,-0.761,-76.538,-40.710,-292.908
0.242,1.976,-0.825,-88.135,-61.523,-288.696
-0.086,2.281,-0.532,-85.815,-71.655,-282.410
-0.427,2.137,-0.500,-76.904,-71.045,-270.813
-0.514,2.130,-0.325,-64.880,-67.139,-251.221
-0.707,2.175,-0.238,-45.471,-40.955,-223.877
-0.637,2.128,-0.226,-25.818,-16.785,-201.599
-0.644,1.931,-0.299,-12.573,-8.667,-182.983
-0.635,1.632,-0.384,-9.583,-8.484,-167.603
-0.773,1.428,-0.434,-10.742,-4.272,-152.039
-0.885,1.310,-0.415,-18.372,-13.611,-133.606
-1.089,1.295,-0.360,-21.790,-13.367,-106.567
-1.156,1.276,-0.286,-20.935,-7.629,-73.181
-1.078,1.225,-0.189,-15.198,-0.793,-36.133
-0.886,1.207,-0.139,-7.812,4.211,-1.709
-0.703,1.195,-0.140,-3.174,3.296,26.550
-0.583,1.158,-0.198,-2.319,-2.136,48.523
-0.569,1.171,-0.176,-3.357,-10.010,67.139
-0.570,1.190,-0.122,-4.822,-17.151,84.106
-0.512,1.156,-0.124,-6.348,-30.518,99.060
-0.296,1.154,-0.191,-6.531,-40.283,107.727
0.056,1.114,-0.208,-6.409,-51.270,109.009
1.056,0.939,-0.475,-6.165,-61.462,93.018
1.742,0.818,-0.305,-7.141,-52.917,64.270
1.238,0.810,-0.109,-10.193,-36.743,59.753
0.554,0.947,0.041,-4.150,-33.691,72.449
-0.065,1.086,-0.048,-4.456,-44.312,87.158
-0.135,1.147,-0.342,-11.292,-61.340,94.238
-0.057,1.335,-0.310,-12.756,-60.547,90.515
0.006,1.516,-0.141,-7.996,-47.302,86.304
-0.036,1.414,-0.251,-7.446,-31.311,87.646
0.117,1.314,-0.376,-8.972,-12.817,84.473
0.041,1.312,-0.229,-3.784,4.822,84.839
0.180,1.094,-0.466,-2.991,13.916,84.351
0.335,0.906,-0.356,-4.456,15.503,79.346
0.055,0.789,-0.579,-9.338,7.874,83.374
0.205,0.785,-0.684,-6.897,1.770,80.200
0.163,0.735,-0.652,-6.775,-0.671,72.144
0.069,0.837,-0.628,-5.371,2.747,68.176
-0.156,0.958,-0.470,-2.075,11.047,65.063
0.061,1.064,-0.343,3.113,20.691,58.228
0.120,0.976,-0.290,2.991,29.724,53.589
0.110,0.953,-0.322,0.977,38.940,52.185
0.358,0.977,-0.281,2.075,43.823,47.974
0.150,0.942,-0.214,-1.587,44.373,46.875
0.141,1.000,-0.295,-1.770,37.170,48.279
0.579,0.865,-0.318,-3.540,29.785,38.818
0.187,0.842,-0.349,-9.888,26.672,39.795
-0.115,0.979,-0.444,-8.911,23.132,43.396
0.277,0.985,-0.450,-2.502,24.597,35.034
0.610,0.809,-0.337,0.183,27.771,24.292
-0.336,0.861,-0.406,-4.700,26.733,33.630
0.024,1.073,-0.472,4.639,27.283,27.954
0.713,0.763,-0.313,3.906,28.259,16.541
-0.247,0.935,-0.359,-1.892,25.085,29.480
0.145,0.978,-0.456,3.601,23.621,20.447
0.488,0.849,-0.259,1.343,23.682,17.822
0.044,0.911,-0.343,0.183,20.325,22.827
0.129,0.775,-0.413,-0.671,18.127,18.555
0.388,0.974,-0.319,0.305,16.479,18.799
0.115,0.850,-0.377,-0.854,15.198,17.029
0.168,0.849,-0.408,0.122,16.174,16.174
0.192,0.944,-0.389,1.526,16.174,16.479
0.178,0.906,-0.370,1.831,16.113,14.709
0.060,0.818,-0.415,0.549,15.259,17.944
0.242,0.988,-0.390,4.761,15.625,15.259
0.328,0.740,-0.408,0.610,15.686,14.282
-0.063,0.974,-0.361,2.380,16.785,21.851
0.018,0.957,-0.348,3.540,18.494,19.531
0.350,0.858,-0.355,2.502,17.151,20.508
0.117,0.937,-0.415,2.808,17.273,24.048
0.099,0.862,-0.396,1.038,16.663,24.231
0.058,0.974,-0.373,2.625,16.235,26.489
0.196,0.853,-0.386,2.075,16.968,24.902
0.100,0.893,-0.395,1.770,16.785,27.527
-0.010,0.963,-0.368,3.357,17.517,27.466
0.301,0.878,-0.384,3.357,18.250,24.536
0.088,0.884,-0.437,1.282,18.005,28.320
-0.012,0.931,-0.385,2.075,17.639,29.297
0.375,0.871,-0.351,1.343,15.991,26.672
0.079,0.842,-0.431,-1.099,13.489,30.823
-0.274,0.975,-0.415,0.000,15.381,33.997
0.088,1.034,-0.308,3.967,18.982,31.067
0.471,0.839,-0.412,1.648,21.667,27.222
-0.277,0.935,-0.511,-1.404,23.071,36.133
-0.364,1.191,-0.251,6.531,29.297,37.598
0.780,0.732,-0.335,4.517,28.381,32.959
-0.375,0.983,-0.556,2.441,27.588,48.950
-0.023,0.985,-0.299,8.728,32.532,47.058
0.495,0.918,-0.421,7.568,31.128,50.232
-0.084,1.009,-0.438,10.315,32.776,58.228
0.036,0.874,-0.430,9.521,32.715,61.890
0.256,1.042,-0.349,13.184,29.785,66.040
0.181,1.022,-0.294,13.245,28.198,68.970
-0.036,0.960,-0.366,11.047,24.780,72.998
0.052,1.081,-0.255,14.038,21.912,75.439
0.169,1.057,-0.290,12.817,19.043,76.355
-0.332,1.117,-0.453,12.878,16.663,81.726
0.313,1.045,-0.320,17.090,19.165,77.637

0.099,1.457,-0.446,9.583,81.848,142.273
-0.116,1.429,-0.451,13.184,78.369,145.142
-0.064,1.371,-0.540,15.442,68.298,143.494
0.094,1.278,-0.580,15.930,58.289,136.963
0.293,1.189,-0.541,19.409,51.697,126.282
0.417,1.044,-0.476,23.743,46.631,114.685
0.377,0.852,-0.434,26.733,42.603,105.469
0.327,0.632,-0.404,27.222,37.537,95.581
0.056,0.409,-0.389,22.461,31.860,85.693
-0.606,0.252,-0.385,12.939,29.663,79.468
-0.362,0.408,-0.323,18.188,22.034,58.838
-0.065,0.323,-0.356,19.775,11.963,31.555
0.078,0.447,-0.253,20.020,7.568,10.193
-0.025,0.590,-0.065,21.057,6.042,-1.160
-0.420,0.593,-0.276,18.555,10.742,-0.732
-0.057,0.506,-0.202,26.001,13.000,-11.963
0.154,0.278,-0.132,32.471,14.648,-29.175
0.279,0.084,-0.114,33.142,13.306,-44.617
0.342,0.043,-0.152,30.945,3.113,-59.265
0.326,0.130,-0.180,28.503,-11.719,-72.815
0.300,0.183,-0.201,25.330,-27.771,-85.083
0.235,0.224,-0.204,20.569,-43.030,-97.290
0.146,0.310,-0.220,17.944,-55.481,-108.582
0.064,0.380,-0.235,17.090,-64.636,-119.141
0.003,0.426,-0.247,17.151,-70.251,-129.517
-0.016,0.459,-0.253,16.846,-73.730,-140.442
-0.004,0.475,-0.258,15.991,-77.759,-151.428
0.022,0.504,-0.270,15.198,-81.482,-161.865
0.052,0.546,-0.288,13.855,-84.045,-172.180
0.098,0.593,-0.316,11.536,-87.463,-182.068
0.091,0.653,-0.333,8.728,-88.745,-191.956
0.107,0.676,-0.379,4.761,-88.135,-200.989
0.088,0.729,-0.412,0.366,-83.496,-211.304
0.088,0.808,-0.427,-4.395,-78.430,-224.060
0.054,0.943,-0.450,-7.080,-72.083,-235.474
0.017,0.996,-0.489,-9.155,-65.247,-242.187
0.065,1.009,-0.503,-11.353,-56.396,-246.704
0.109,1.133,-0.542,-16.968,-53.284,-253.418
-0.047,1.294,-0.588,-16.907,-47.302,-257.263
-0.109,1.350,-0.590,-18.372,-34.729,-264.526
-0.086,1.454,-0.594,-22.583,-25.513,-272.949
-0.045,1.480,-0.621,-30.640,-20.508,-279.480
0.042,1.543,-0.670,-41.138,-22.644,-284.546
0.125,1.648,-0.688,-51.331,-32.166,-288.208
0.124,1.721,-0.682,-61.401,-44.800,-289.246
-0.009,1.771,-0.630,-67.810,-54.993,-287.781
-0.164,1.777,-0.547,-68.848,-63.354,-282.898
-0.311,1.803,-0.472,-64.392,-63.416,-267.700
-0.393,1.871,-0.431,-55.664,-53.528,-249.634
-0.475,1.938,-0.373,-44.556,-27.710,-238.342
-0.553,1.965,-0.361,-35.339,-6.104,-227.844
-0.516,1.926,-0.371,-28.564,3.113,-214.905
-0.518,1.775,-0.361,-23.437,6.104,-198.303
-0.564,1.604,-0.349,-22.766,2.197,-180.603
-0.690,1.479,-0.333,-22.888,-1.770,-161.377
-0.885,1.411,-0.320,-23.132,-4.761,-138.428
-1.125,1.364,-0.269,-21.973,-2.014,-108.704
-1.222,1.278,-0.203,-17.578,7.812,-72.693
-1.069,1.212,-0.121,-10.315,18.372,-33.081
-0.792,1.145,-0.111,-4.578,23.865,2.258
-0.553,1.128,-0.162,-2.869,21.362,29.358
-0.421,1.115,-0.213,-3.540,12.573,48.645
-0.313,1.103,-0.265,-7.263,-2.380,63.538
-0.301,1.119,-0.227,-10.803,-18.677,76.965
-0.368,1.125,-0.142,-11.169,-30.151,89.417
-0.414,1.129,-0.158,-10.071,-40.527,103.271
-0.296,1.166,-0.135,-7.324,-44.128,111.267
0.208,1.004,-0.301,-8.118,-49.316,106.079
1.125,0.951,-0.387,-9.338,-53.467,84.473
1.424,0.849,-0.310,-11.536,-42.847,67.261
1.093,0.937,-0.013,-6.226,-28.076,65.369
0.435,0.982,0.042,-2.319,-29.175,77.759
-0.083,1.129,-0.084,-3.784,-38.879,92.896
-0.063,1.216,-0.325,-5.737,-46.936,95.581
-0.213,1.419,-0.206,-7.446,-40.710,91.614
-0.124,1.503,-0.381,-4.883,-27.100,90.759
0.310,1.349,-0.292,-5.066,-15.625,84.778
0.152,1.209,-0.304,-6.958,-3.479,86.548
-0.030,1.169,-0.474,-5.493,3.052,91.797
0.503,0.987,-0.472,-2.502,4.761,80.872
0.296,0.814,-0.360,-8.118,4.272,78.857
-0.315,0.766,-0.713,-14.404,-2.197,89.783
0.558,0.817,-0.636,-7.141,-10.986,76.782
-0.163,0.677,-0.692,-16.602,-7.629,74.829
-0.133,1.099,-0.628,-6.531,1.648,72.754
0.138,1.087,-0.186,5.432,14.893,60.425
0.063,0.936,-0.335,0.122,28.015,59.082
0.020,0.964,-0.344,-2.258,34.241,58.838
0.147,1.055,-0.254,0.427,45.715,53.711
0.305,1.054,-0.206,-0.244,49.683,51.331
0.200,0.962,-0.239,-4.333,44.861,51.941
0.321,0.948,-0.320,-4.822,34.302,50.354
0.406,0.858,-0.291,-7.080,25.208,46.021
-0.013,0.917,-0.446,-8.362,23.987,45.776
0.537,0.865,-0.356,-1.038,21.484,34.607
-0.006,0.905,-0.403,-5.127,20.630,36.926
-0.086,0.993,-0.492,0.549,17.944,36.377
0.353,0.853,-0.395,5.859,22.583,26.672
0.036,0.867,-0.423,2.502,25.146,26.611
0.128,0.884,-0.390,5.432,29.480,23.743
0.047,0.912,-0.359,3.601,31.433,23.865
0.296,0.862,-0.331,3.723,28.992,19.775
0.185,0.839,-0.320,-0.977,24.536,20.203
0.085,0.896,-0.339,-1.648,21.606,19.592
0.393,0.857,-0.332,-0.488,18.921,14.343
0.107,0.833,-0.354,-4.395,15.747,15.808
-0.032,0.925,-0.366,-2.441,17.517,15.869
0.315,0.913,-0.367,-0.427,20.081,9.460
0.146,0.801,-0.402,-3.662,19.531,11.536
-0.091,0.947,-0.407,-3.235,19.958,16.235
0.028,0.961,-0.412,-0.244,21.545,14.343
0.563,0.786,-0.396,-0.610,21.118,6.897
0.107,0.831,-0.414,-6.592,17.395,14.893
-0.531,1.129,-0.426,0.366,23.743,19.836
0.455,0.897,-0.345,6.226,31.128,5.920
0.071,0.759,-0.427,-5.615,28.015,14.771
-0.255,1.085,-0.449,1.465,32.410,20.020
0.426,0.867,-0.384,4.028,31.860,11.780
0.118,0.810,-0.401,-2.502,26.672,18.494
0.157,0.975,-0.408,2.869,27.771,18.616
0.043,0.917,-0.452,1.831,26.489,19.470
0.133,0.886,-0.408,3.540,28.809,17.944
0.184,0.963,-0.415,5.066,31.616,19.897
0.044,0.935,-0.409,4.761,30.701,23.315
0.176,0.895,-0.402,5.676,28.442,23.560
0.252,0.891,-0.380,4.333,26.245,26.367
-0.035,1.001,-0.363,6.226,23.926,29.968
0.435,0.742,-0.454,5.920,23.621,26.794
0.015,1.010,-0.419,2.686,19.958,35.217
-0.138,1.020,-0.335,7.202,19.836,37.659
0.308,0.846,-0.363,7.690,19.104,39.001
0.060,0.942,-0.425,7.507,15.869,44.434
0.094,0.851,-0.407,6.042,13.672,46.631
-0.013,1.032,-0.375,6.897,12.573,50.903
0.126,0.890,-0.403,7.019,14.343,51.208
0.048,0.936,-0.433,5.737,14.709,55.054
-0.103,0.981,-0.417,6.714,16.663,57.617
0.290,0.894,-0.373,8.362,19.958,56.763
-0.064,0.918,-0.478,5.493,19.287,63.232
-0.058,1.009,-0.324,7.874,20.142,65.430
0.304,0.940,-0.331,8.667,19.470,65.308
-0.101,0.954,-0.410,5.310,15.381,70.862
-0.327,1.041,-0.342,5.493,11.719,75.806
0.189,1.109,-0.270,10.681,14.160,72.510
0.293,0.974,-0.468,7.751,15.686,72.144
-0.572,1.079,-0.588,2.869,12.695,81.970
-0.148,1.312,-0.222,14.099,22.583,78.613
0.457,0.920,-0.509,10.803,27.649,77.881
-0.727,1.285,-0.551,8.179,25.635,91.125
0.143,1.192,-0.254,13.123,36.621,84.412
0.138,1.058,-0.547,9.827,37.781,87.585
-0.179,1.339,-0.316,11.414,43.762,91.187
-0.065,1.227,-0.454,12.573,44.373,94.971
0.007,1.170,-0.467,13.672,46.631,98.267
0.118,1.300,-0.417,14.099,50.232,102.356
-0.104,1.359,-0.445,14.954,53.711,106.445
0.003,1.354,-0.363,18.433,61.584,108.215
0.188,1.367,-0.392,20.752,64.819,114.197
0.124,1.560,-0.394,24.658,62.805,123.901
0.424,1.471,-0.414,24.536,58.716,129.822
0.281,1.617,-0.563,21.667,51.086,140.625
0.375,1.631,-0.604,21.973,52.856,147.766
0.552,1.459,-0.602,17.578,55.908,153.015
0.338,1.442,-0.556,8.362,56.702,155.640
0.096,1.513,-0.490,2.686,60.364,155.029
-0.118,1.626,-0.469,5.066,67.383,153.992
-0.033,1.542,-0.463,9.583,73.059,149.597
-0.032,1.460,-0.482,12.207,69.153,148.743
-0.123,1.378,-0.547,14.954,59.875,147.827
0.009,1.293,-0.521,19.897,56.030,138.611
0.248,1.117,-0.485,22.949,54.199,127.014
0.292,0.963,-0.432,25.513,54.443,116.272
0.289,0.760,-0.423,28.259,53.955,106.323
0.306,0.552,-0.338,29.541,50.049,94.482
-0.173,0.327,-0.398,22.156,44.250,86.365
-0.606,0.275,-0.434,16.663,34.790,79.102
-0.359,0.321,-0.350,19.531,22.339,56.885
-0.103,0.341,-0.333,18.127,14.526,32.898
0.064,0.449,-0.284,16.724,15.015,14.160
0.207,0.594,-0.156,19.226,14.221,0.732
-0.137,0.631,-0.155,19.226,15.381,-2.625
-0.158,0.527,-0.226,20.630,18.555,-6.531
0.054,0.329,-0.140,25.208,20.264,-22.278
0.182,0.153,-0.099,28.259,19.043,-39.917
0.250,0.078,-0.129,26.306,11.780,-55.359
0.278,0.132,-0.147,22.461,-1.404,-68.298
0.233,0.195,-0.167,18.188,-17.395,-79.041
0.152,0.247,-0.207,13.794,-32.776,-89.783
0.070,0.308,-0.207,11.047,-43.823,-100.342
0.016,0.355,-0.207,10.315,-52.307,-110.901
0.016,0.376,-0.203,9.460,-59.509,-122.253
0.039,0.404,-0.199,8.301,-66.833,-133.179
0.026,0.438,-0.204,7.629,-72.510,-143.860
0.050,0.457,-0.226,6.775,-77.271,-155.029
0.073,0.484,-0.246,5.615,-81.665,-166.382
0.074,0.515,-0.272,3.906,-84.595,-177.368
0.070,0.552,-0.294,1.892,-85.388,-188.477
0.054,0.591,-0.328,-0.427,-82.642,-199.768
0.045,0.642,-0.365,-3.113,-77.881,-210.327
0.043,0.691,-0.392,-7.202,-72.266,-221.863
0.028,0.777,-0.414,-10.803,-64.270,-234.436
0.031,0.868,-0.441,-12.817,-55.176,-243.774
0.036,0.990,-0.458,-12.634,-46.997,-248.901
0.031,1.039,-0.464,-13.245,-39.673,-254.211
-0.014,1.073,-0.472,-16.235,-31.250,-260.254
0.017,1.171,-0.520,-20.630,-24.902,-267.456
0.007,1.241,-0.573,-24.414,-19.165,-275.391
0.024,1.343,-0.591,-31.128,-15.869,-283.875
0.045,1.470,-0.623,-39.978,-16.113,-289.795
0.051,1.629,-0.585,-46.509,-17.700,-292.786
0.037,1.735,-0.564,-52.002,-22.278,-293.884
0.036,1.766,-0.544,-57.678,-30.334,-292.542
0.013,1.830,-0.558,-62.439,-38.147,-289.795
-0.120,1.960,-0.566,-62.012,-42.236,-279.663
-0.232,2.052,-0.572,-57.922,-44.739,-265.076
-0.329,2.065,-0.555,-51.086,-41.687,-249.146
-0.440,2.004,-0.455,-44.861,-32.654,-231.567
-0.599,1.891,-0.390,-38.818,-16.296,-211.914
-0.653,1.812,-0.358,-33.325,-10.681,-189.453
-0.679,1.677,-0.314,-28.748,-10.864,-164.734
-0.705,1.542,-0.270,-28.198,-13.062,-140.930
-0.842,1.480,-0.251,-27.527,-19.043,-117.676
-1.067,1.404,-0.276,-24.048,-21.851,-91.309
-1.163,1.309,-0.147,-18.555,-20.142,-58.838
-1.021,1.173,-0.101,-13.428,-21.851,-19.958
-0.762,1.114,-0.098,-7.935,-21.301,17.639
-0.511,1.125,-0.169,-5.188,-24.841,49.438
-0.377,1.111,-0.214,-5.981,-36.438,72.327
-0.359,1.117,-0.204,-10.986,-52.246,88.074
-0.409,1.123,-0.215,-14.038,-63.904,98.450
-0.439,1.132,-0.188,-12.878,-70.251,108.398
-0.426,1.045,-0.360,-12.451,-72.144,114.746
0.667,1.024,-0.522,-11.597,-74.463,100.342
1.059,0.902,-0.387,-8.606,-58.533,78.369
1.072,0.917,-0.137,-3.601,-31.555,67.200
0.515,0.945,0.033,3.906,-15.686,71.167
-0.005,1.027,-0.148,4.822,-12.756,81.665
0.048,1.153,-0.268,2.258,-22.827,88.745

0.302,1.009,-0.482,-13.672,9.399,39.856
0.535,0.859,-0.318,-9.216,18.433,28.137
-0.506,0.849,-0.427,-13.611,29.602,38.574
-0.038,1.109,-0.527,-1.526,35.522,33.020
0.736,0.816,-0.340,2.075,37.903,15.930
-0.350,0.895,-0.418,-6.165,38.635,32.532
0.189,1.062,-0.445,3.967,39.124,24.963
0.477,0.840,-0.264,0.793,38.757,17.395
0.034,0.896,-0.350,-2.319,32.959,26.428
0.184,0.805,-0.427,-1.892,27.954,19.775
0.297,0.964,-0.284,-1.770,26.794,18.066
0.133,0.859,-0.351,-2.380,24.475,17.639
0.156,0.801,-0.385,-3.784,23.437,14.893
0.138,0.936,-0.343,-2.930,23.560,14.465
0.169,0.876,-0.392,-1.953,23.254,11.780
0.029,0.843,-0.408,-4.028,22.339,14.038
0.175,1.035,-0.376,0.549,25.208,11.292
0.382,0.763,-0.394,-2.319,23.193,8.057
0.008,0.993,-0.352,-2.319,20.813,17.700
-0.034,0.986,-0.399,0.610,20.752,15.869
0.318,0.809,-0.393,-0.183,19.775,14.343
0.089,0.926,-0.415,0.061,19.409,17.761
0.103,0.878,-0.398,0.427,18.372,17.273
0.022,0.974,-0.385,0.793,17.029,18.982
0.155,0.868,-0.403,0.732,17.517,16.235
0.098,0.899,-0.393,0.488,16.846,18.738
-0.042,0.908,-0.402,0.610,16.357,19.775
0.305,0.868,-0.375,1.526,17.883,16.479
0.115,0.879,-0.427,-1.404,16.479,20.508
-0.031,0.935,-0.420,-0.183,15.564,22.034
0.282,0.928,-0.354,0.977,15.625,18.616
0.135,0.854,-0.396,-1.038,14.893,21.545
-0.147,0.936,-0.399,-1.038,14.526,25.879
-0.066,1.007,-0.323,1.953,16.479,26.184
0.444,0.786,-0.417,1.770,18.494,22.095
0.107,0.769,-0.524,-3.479,16.418,30.823
-0.497,1.089,-0.384,1.282,16.968,39.795
0.599,0.891,-0.272,6.104,20.752,31.738
0.036,0.769,-0.623,-2.380,16.968,44.250
-0.325,1.100,-0.418,3.113,19.165,47.302
0.360,0.966,-0.313,3.296,20.569,42.358
-0.109,0.928,-0.525,2.808,22.705,46.753
0.004,0.953,-0.347,4.822,27.161,46.936
0.034,1.012,-0.357,5.676,26.611,49.194
0.026,0.844,-0.450,5.859,27.405,49.194
0.084,0.903,-0.431,5.188,26.306,51.636
0.019,0.984,-0.392,5.310,23.315,54.626
0.067,0.954,-0.358,6.348,23.437,56.458
-0.037,0.897,-0.443,4.517,21.484,62.927
0.090,1.161,-0.272,9.338,20.081,64.270
0.220,0.893,-0.473,4.089,15.320,64.514
-0.333,1.155,-0.466,5.310,14.465,71.167
-0.062,1.250,-0.271,9.155,20.630,68.665
-0.046,1.101,-0.433,9.460,24.231,69.702
-0.170,1.195,-0.400,12.146,29.846,72.266
-0.133,1.128,-0.436,11.353,32.532,75.012
0.021,1.198,-0.369,16.052,37.598,77.271
-0.039,1.145,-0.447,16.785,40.894,81.848
-0.103,1.153,-0.454,19.470,45.349,86.243
0.076,1.244,-0.399,24.414,50.110,88.684
0.116,1.134,-0.501,23.499,51.819,93.140
-0.140,1.316,-0.531,26.123,50.903,101.440
0.253,1.300,-0.391,28.320,54.016,101.563
0.105,1.304,-0.479,28.259,56.519,107.910
-0.086,1.386,-0.414,31.189,59.448,116.394
0.261,1.490,-0.272,36.194,61.096,119.934
0.596,1.468,-0.327,35.767,60.730,125.366
0.118,1.551,-0.558,31.372,52.490,142.151
0.197,1.735,-0.465,33.752,51.025,148.132
0.774,1.451,-0.574,27.710,55.420,151.917
0.326,1.463,-0.556,18.494,55.237,163.513
0.452,1.464,-0.440,13.977,54.077,164.185
0.252,1.484,-0.444,7.385,52.246,163.574
0.075,1.610,-0.488,11.353,57.068,161.255
0.078,1.492,-0.535,11.353,54.382,157.410
-0.010,1.379,-0.571,11.719,46.082,156.494
-0.027,1.338,-0.620,12.024,37.109,152.527
0.120,1.208,-0.618,11.841,33.325,145.447
0.233,1.095,-0.578,12.817,31.128,136.353
0.264,0.918,-0.496,14.648,33.569,124.023
0.186,0.733,-0.405,16.174,39.063,111.389
0.058,0.510,-0.329,14.832,43.823,98.694
-0.549,0.335,-0.363,8.362,45.471,91.858
-0.466,0.408,-0.359,10.132,39.795,76.965
-0.134,0.343,-0.374,12.085,29.602,52.063
0.007,0.465,-0.303,11.414,23.376,30.212
0.137,0.644,-0.132,13.794,18.860,14.771
-0.311,0.644,-0.320,9.277,17.395,10.925
-0.112,0.572,-0.270,13.794,19.592,0.732
0.142,0.320,-0.130,20.447,22.888,-16.541
0.271,0.146,-0.077,22.522,21.240,-31.738
0.272,0.099,-0.085,21.484,17.883,-46.326
0.269,0.121,-0.118,18.127,8.911,-60.059
0.254,0.181,-0.128,14.465,-2.869,-74.097
0.179,0.229,-0.131,10.376,-13.855,-87.830
0.112,0.283,-0.141,7.385,-24.597,-102.417
0.045,0.329,-0.143,5.737,-33.264,-114.807
0.009,0.360,-0.147,4.944,-39.551,-126.099
-0.005,0.391,-0.141,4.700,-44.250,-138.184
-0.001,0.389,-0.131,3.601,-48.218,-150.452
0.016,0.427,-0.144,2.258,-52.551,-161.743
0.059,0.418,-0.152,0.183,-56.702,-172.180
0.128,0.461,-0.181,-2.014,-62.866,-183.411
0.174,0.518,-0.213,-4.822,-69.824,-194.580
0.218,0.569,-0.251,-7.324,-73.547,-203.064
0.202,0.626,-0.273,-11.169,-74.890,-215.515
0.212,0.669,-0.299,-17.944,-82.764,-228.638
0.168,0.774,-0.341,-20.142,-79.407,-237.061
0.122,0.894,-0.367,-20.447,-70.496,-245.483
0.047,1.028,-0.381,-20.020,-58.899,-254.211
0.038,1.158,-0.388,-17.944,-47.729,-260.620
0.010,1.122,-0.390,-21.240,-37.720,-268.494
-0.046,1.253,-0.438,-24.109,-29.053,-272.705
-0.125,1.358,-0.502,-24.658,-17.944,-282.043
-0.054,1.428,-0.555,-27.588,-11.841,-289.795
0.065,1.524,-0.566,-33.386,-9.705,-295.166
0.212,1.647,-0.567,-41.992,-20.325,-296.753
0.241,1.772,-0.529,-50.659,-37.170,-298.889
0.141,1.884,-0.488,-57.983,-56.396,-299.988
-0.032,1.961,-0.433,-59.692,-75.378,-293.213
-0.308,1.988,-0.369,-57.922,-90.454,-277.649
-0.584,2.021,-0.358,-57.190,-98.389,-267.822
-0.647,2.103,-0.367,-49.683,-88.196,-246.704
-0.661,2.232,-0.341,-30.762,-62.927,-214.783
-0.684,2.077,-0.352,-17.578,-48.096,-194.275
-0.621,1.822,-0.354,-11.230,-42.236,-170.837
-0.620,1.589,-0.377,-12.268,-43.945,-145.264
-0.674,1.447,-0.419,-18.066,-62.622,-124.390
-0.888,1.368,-0.379,-19.775,-68.726,-101.685
-1.061,1.295,-0.297,-20.996,-72.144,-74.585
-1.159,1.226,-0.269,-18.921,-66.467,-42.725
-1.147,1.177,-0.235,-13.611,-53.711,-8.667
-1.005,1.142,-0.210,-8.972,-44.983,24.048
-0.830,1.135,-0.275,-5.005,-40.588,55.420
-0.740,1.083,-0.351,-5.188,-42.358,80.383
-0.744,1.084,-0.388,-5.371,-44.861,98.755
-0.626,1.041,-0.507,-6.714,-46.570,109.985
-0.467,1.036,-0.574,-8.789,-42.419,112.549
0.502,0.869,-0.884,-12.695,-35.645,98.267
1.470,0.883,-0.630,-11.292,-19.653,70.618
1.388,0.886,-0.183,-6.226,3.723,62.439
0.634,0.975,0.127,0.793,5.127,72.388
-0.178,1.091,-0.115,-0.061,-8.667,90.149
-0.216,1.302,-0.364,-4.272,-26.672,102.295
-0.206,1.608,-0.364,-8.301,-30.151,107.849
0.494,1.690,-0.146,-2.991,-25.146,97.412
0.231,1.274,-0.193,-7.812,-19.226,93.384
-0.177,1.128,-0.443,-15.808,-13.733,99.792
0.014,1.293,-0.211,-11.230,-4.639,96.008
0.041,1.102,-0.320,-11.414,-0.610,90.820
0.128,0.933,-0.399,-15.747,-0.427,88.623
0.055,0.820,-0.588,-18.066,-1.160,87.585
0.091,0.846,-0.508,-13.123,0.854,81.482
-0.020,0.802,-0.560,-11.047,4.028,75.317
0.071,0.934,-0.493,-5.615,10.254,66.162
0.197,0.950,-0.264,-0.854,18.616,57.495
-0.093,0.939,-0.276,-4.150,26.550,56.824
0.309,1.010,-0.290,-1.770,28.442,49.744
0.315,0.881,-0.191,-4.272,30.945,44.373
0.017,0.959,-0.201,-8.545,30.884,49.255
0.064,0.983,-0.344,-8.850,24.536,48.218
0.663,0.853,-0.324,-7.324,19.714,34.729
0.094,0.777,-0.288,-16.357,17.822,38.635
-0.343,1.036,-0.495,-18.127,16.602,47.119
0.647,1.013,-0.380,-5.981,18.066,29.907
-0.141,0.812,-0.288,-10.864,27.161,31.189
-0.161,1.098,-0.441,-6.226,28.992,34.241
0.391,0.932,-0.355,-1.160,31.616,19.653
0.020,0.871,-0.324,-3.784,33.997,21.790
0.169,0.980,-0.329,-0.488,33.081,19.958
0.164,0.921,-0.335,-1.770,33.020,17.273
0.253,0.833,-0.262,-1.953,28.320,17.517
0.361,0.845,-0.314,-4.700,21.667,16.174
0.163,0.922,-0.336,-5.920,17.822,18.127
0.217,0.896,-0.343,-4.578,14.771,17.761
0.248,0.871,-0.342,-6.470,13.000,17.822
0.005,0.977,-0.417,-5.493,12.329,19.531
0.496,0.811,-0.409,-4.211,13.733,12.573
0.103,0.932,-0.359,-6.531,15.015,19.470
-0.152,0.984,-0.392,-3.296,15.015,21.057
0.321,0.892,-0.327,-1.343,15.808,17.883
0.139,0.872,-0.368,-2.930,16.174,22.034
0.138,0.859,-0.391,-2.014,17.151,22.156
-0.004,0.909,-0.385,-2.136,17.639,24.841
0.202,0.878,-0.356,-0.549,19.104,23.193
0.181,0.864,-0.371,-1.831,19.165,24.902
-0.001,0.881,-0.405,-1.831,17.761,26.672
0.224,0.926,-0.333,0.061,18.250,23.743
0.214,0.836,-0.384,-3.113,17.090,24.353
-0.035,0.978,-0.391,-2.380,16.357,26.733
0.156,0.968,-0.341,-0.916,16.541,23.621
0.242,0.860,-0.380,-2.563,16.174,24.170
-0.037,0.928,-0.417,-3.601,15.442,28.687
-0.120,1.014,-0.364,-1.953,14.893,29.724
0.372,0.890,-0.363,-0.366,16.113,24.414
0.270,0.788,-0.479,-4.517,16.113,26.306
-0.579,1.028,-0.469,-3.601,18.127,33.508
0.184,1.032,-0.217,3.052,22.217,25.818
0.282,0.714,-0.476,-4.150,19.714,31.067
-0.393,1.030,-0.459,-1.526,20.325,37.964
0.257,0.936,-0.257,-0.183,21.729,34.912
0.163,0.885,-0.442,-0.427,20.996,40.710
0.014,0.935,-0.357,1.038,23.560,43.762
-0.045,0.953,-0.406,0.977,23.865,47.852
0.170,0.947,-0.447,3.967,25.513,49.744
0.152,0.971,-0.408,4.395,27.649,53.406
-0.015,0.975,-0.423,4.944,27.893,58.105
0.073,0.959,-0.389,7.141,26.611,60.425
0.157,1.000,-0.370,6.348,24.780,63.049
-0.252,1.183,-0.338,9.399,23.865,67.505
0.327,0.939,-0.341,9.949,24.353,63.110
-0.175,1.145,-0.458,8.728,21.667,71.045
-0.268,1.145,-0.305,11.475,25.635,71.594
0.154,1.003,-0.425,13.367,28.015,70.801
-0.186,1.192,-0.464,14.954,30.640,75.806
-0.066,1.108,-0.427,15.747,34.485,76.111
-0.182,1.281,-0.429,21.179,38.147,78.735
-0.011,1.110,-0.420,22.461,43.823,78.918
-0.106,1.145,-0.480,24.353,45.349,83.740
-0.048,1.191,-0.331,27.405,50.110,85.083
0.240,1.122,-0.349,28.198,51.086,86.365
-0.112,1.230,-0.457,27.405,44.861,95.886
0.036,1.298,-0.318,31.921,41.687,98.083
0.181,1.175,-0.454,31.616,40.100,99.976
-0.099,1.268,-0.465,29.480,38.391,106.689
0.006,1.347,-0.301,31.250,41.382,108.582
0.402,1.245,-0.258,34.485,47.668,109.070
0.124,1.234,-0.386,30.273,47.913,121.155
-0.124,1.478,-0.373,28.931,41.748,133.606
0.554,1.469,-0.356,29.358,40.710,132.996
0.196,1.548,-0.623,23.193,34.363,144.592
0.413,1.513,-0.525,21.790,37.292,154.053
0.567,1.398,-0.536,15.991,36.987,158.997
0.221,1.452,-0.477,8.240,40.466,159.668
0.058,1.535,-0.490,6.165,45.715,159.119
0.026,1.563,-0.521,7.629,48.523,156.433
0.110,1.507,-0.537,9.277,48.950,153.870
0.047,1.423,-0.586,9.705,42.542,154.602

0.137,0.297,-0.170,4.089,-30.701,-99.426
0.071,0.351,-0.169,2.625,-39.551,-109.314
0.025,0.386,-0.172,1.282,-46.631,-118.774
0.010,0.404,-0.171,-0.122,-52.673,-128.967
0.036,0.422,-0.164,-1.831,-59.387,-140.198
0.078,0.457,-0.168,-3.723,-67.322,-151.367
0.121,0.491,-0.210,-6.042,-76.599,-162.109
0.133,0.543,-0.246,-8.484,-84.717,-172.607
0.131,0.599,-0.278,-10.620,-89.783,-182.983
0.128,0.656,-0.307,-12.817,-92.590,-192.383
0.127,0.694,-0.345,-16.785,-93.872,-202.209
0.125,0.747,-0.375,-20.325,-91.980,-212.463
0.095,0.785,-0.402,-23.499,-87.402,-224.182
0.046,0.908,-0.443,-23.743,-80.933,-231.140
0.045,1.052,-0.451,-20.630,-71.472,-235.840
0.010,1.112,-0.476,-19.287,-57.373,-244.568
-0.017,1.163,-0.474,-20.508,-46.448,-252.014
-0.072,1.287,-0.479,-19.897,-33.325,-258.850
-0.142,1.390,-0.507,-18.005,-19.226,-266.968
-0.094,1.392,-0.548,-20.325,-8.179,-276.062
0.022,1.413,-0.578,-28.076,-3.235,-282.776
0.141,1.479,-0.600,-39.185,-5.920,-287.903
0.243,1.604,-0.605,-50.232,-17.029,-292.603
0.191,1.741,-0.592,-56.702,-29.175,-295.288
0.093,1.833,-0.561,-58.289,-41.626,-290.710
-0.159,1.873,-0.509,-55.298,-44.250,-274.353
-0.380,1.910,-0.469,-50.598,-33.997,-258.728
-0.501,1.961,-0.427,-47.119,-19.470,-245.361
-0.577,2.005,-0.407,-41.870,-3.418,-232.788
-0.579,1.950,-0.360,-36.072,5.066,-218.689
-0.519,1.785,-0.286,-31.616,6.531,-201.843
-0.521,1.688,-0.224,-29.175,0.122,-183.044
-0.478,1.587,-0.233,-29.114,-22.034,-163.269
-0.597,1.505,-0.234,-26.672,-39.673,-139.648
-0.761,1.436,-0.245,-24.658,-49.744,-114.929
-0.934,1.342,-0.262,-23.071,-51.819,-90.088
-1.030,1.255,-0.219,-19.897,-47.363,-60.486
-1.035,1.203,-0.109,-15.564,-40.161,-27.283
-0.918,1.139,-0.112,-11.536,-33.875,5.310
-0.714,1.089,-0.162,-11.292,-35.278,34.180
-0.533,1.122,-0.236,-13.123,-44.556,56.396
-0.531,1.140,-0.263,-12.634,-48.584,72.449
-0.598,1.167,-0.274,-7.507,-45.105,87.280
-0.474,1.099,-0.309,-5.249,-47.302,100.525
-0.410,1.168,-0.207,-5.371,-56.091,112.366
0.228,0.986,-0.510,-9.766,-62.561,109.558
1.452,1.075,-0.320,-6.775,-60.303,81.238
1.523,0.919,-0.082,-5.371,-41.687,64.209
0.933,0.982,0.188,-0.183,-26.550,72.571
0.094,1.003,0.070,-1.404,-28.320,90.576
-0.316,1.048,-0.461,-10.315,-49.194,104.614
-0.000,1.265,-0.436,-13.367,-55.298,100.769
-0.212,1.605,-0.074,-9.155,-38.269,96.558
-0.167,1.429,-0.478,-10.010,-31.067,101.624
0.646,1.273,-0.219,-6.348,-24.170,88.257
0.050,0.987,-0.452,-15.076,-14.221,93.201
0.020,1.100,-0.502,-13.733,-9.888,97.778
0.155,0.973,-0.431,-12.634,-9.705,91.064
0.169,0.819,-0.639,-18.677,-12.695,89.661
0.130,0.821,-0.676,-19.775,-16.663,88.867
0.153,0.937,-0.568,-13.916,-15.015,81.726
0.091,0.979,-0.333,-6.042,-5.066,73.181
-0.107,0.932,-0.306,-4.150,7.141,69.702
0.081,0.983,-0.306,-1.587,14.526,61.096
-0.139,0.968,-0.218,-1.709,24.292,56.763
0.301,1.099,-0.310,1.953,32.898,48.584
0.219,0.939,-0.169,-2.136,38.635,44.983
-0.047,1.026,-0.310,-7.080,37.842,50.964
0.355,1.055,-0.261,-3.418,28.381,45.166
0.294,0.807,-0.287,-7.263,19.348,39.063
0.258,0.836,-0.421,-10.986,14.099,37.476
0.081,0.900,-0.426,-11.963,10.010,37.292
0.217,0.993,-0.409,-7.507,10.986,33.936
0.190,0.899,-0.371,-4.395,12.573,28.931
0.039,0.916,-0.432,-3.418,18.616,27.771
0.212,0.948,-0.404,1.831,23.743,23.254
0.334,0.838,-0.331,2.991,28.137,18.860
0.007,0.892,-0.379,0.671,30.762,22.034
0.196,0.911,-0.402,4.395,30.762,18.005
0.450,0.821,-0.286,2.869,29.175,12.451
0.053,0.855,-0.348,-3.235,24.414,17.700
-0.065,0.950,-0.323,-2.625,20.203,19.470
0.432,0.943,-0.316,0.793,18.494,10.803
0.492,0.762,-0.282,-3.357,16.113,8.179
-0.383,0.867,-0.380,-9.827,12.817,21.362
0.051,1.073,-0.411,-0.488,14.771,14.343
0.645,0.807,-0.322,-1.526,14.709,5.493
-0.334,0.881,-0.385,-8.789,13.062,22.644
0.138,0.982,-0.446,0.122,15.869,16.541
0.480,0.849,-0.329,0.244,13.245,12.390
-0.055,0.885,-0.366,-1.892,9.460,18.494
0.150,0.883,-0.391,1.770,10.864,16.235
0.221,0.974,-0.357,1.770,9.460,15.564
0.097,0.841,-0.415,1.343,10.193,14.709
0.181,0.908,-0.379,0.793,12.085,14.648
0.125,0.928,-0.386,-0.549,11.719,15.747
0.143,0.894,-0.365,0.000,12.390,15.381
0.086,0.886,-0.361,-1.770,11.047,18.738
0.167,0.963,-0.425,-0.305,11.230,19.104
0.361,0.787,-0.438,-1.404,11.475,17.944
-0.039,0.960,-0.377,-3.357,8.728,27.405
-0.038,0.941,-0.450,0.977,13.855,29.053
0.296,0.826,-0.377,1.587,17.517,30.396
0.147,0.891,-0.427,-0.122,18.250,36.011
0.070,0.897,-0.424,0.854,19.470,38.086
0.055,0.975,-0.382,3.174,19.592,40.894
0.200,0.881,-0.417,4.028,18.738,41.199
0.093,0.929,-0.424,3.540,16.052,44.556
-0.010,0.981,-0.424,5.859,15.259,44.495
0.304,0.857,-0.384,6.836,17.029,41.809
-0.029,0.933,-0.458,4.883,15.503,46.753
0.010,0.955,-0.390,8.240,18.616,45.898
0.339,0.847,-0.379,7.996,21.362,45.593
-0.072,0.953,-0.452,6.714,19.592,52.734
-0.185,1.010,-0.384,10.132,19.409,58.350
0.407,0.942,-0.341,14.404,23.499,55.176
0.250,0.813,-0.480,8.301,20.935,61.340
-0.614,1.144,-0.416,9.033,17.090,71.960
0.483,1.073,-0.151,18.127,25.208,63.293
-0.137,0.823,-0.561,8.362,21.423,72.815
-0.554,1.232,-0.311,12.695,24.841,74.646
0.423,1.013,-0.308,16.541,31.860,68.665
-0.240,1.055,-0.574,17.395,28.931,73.669
0.075,0.952,-0.367,18.921,27.405,75.623
0.083,1.092,-0.421,20.325,23.804,76.111
-0.036,1.060,-0.474,19.531,27.466,75.867
-0.181,1.062,-0.505,18.066,30.334,77.637
-0.114,1.210,-0.329,19.104,36.499,77.881
0.138,1.257,-0.280,20.630,43.030,76.843
-0.323,1.201,-0.401,19.043,43.274,84.412
0.305,1.188,-0.201,23.437,47.119,82.825
0.034,1.178,-0.442,19.226,40.588,91.248
-0.359,1.270,-0.457,18.188,38.513,96.008
0.172,1.277,-0.326,21.851,42.847,95.032
-0.068,1.304,-0.393,22.156,45.715,100.220
-0.097,1.294,-0.282,25.574,52.917,103.699
-0.122,1.312,-0.323,27.893,56.885,107.361
0.153,1.311,-0.331,29.175,59.204,109.497
0.191,1.435,-0.399,28.320,54.749,116.882
0.201,1.508,-0.415,28.809,50.781,123.230
0.464,1.553,-0.381,30.701,49.072,125.732
0.305,1.530,-0.493,28.503,44.922,132.446
0.290,1.482,-0.507,27.039,47.241,137.695
0.364,1.313,-0.484,21.606,54.443,140.747
0.203,1.346,-0.479,15.015,55.481,144.714
-0.080,1.395,-0.464,8.545,57.007,144.958
-0.084,1.507,-0.414,10.742,64.392,139.221
0.110,1.363,-0.453,11.658,64.880,134.766
-0.125,1.315,-0.520,8.606,52.246,137.756
-0.265,1.332,-0.475,12.878,47.791,136.353
0.090,1.167,-0.446,16.357,49.255,127.197
0.236,1.021,-0.452,16.357,44.312,119.995
0.122,0.882,-0.450,17.700,45.349,114.014
0.105,0.697,-0.426,18.921,48.340,105.469
-0.020,0.496,-0.353,17.212,49.072,94.727
-0.521,0.277,-0.389,9.766,48.523,87.097
-0.453,0.384,-0.300,10.254,44.739,70.679
-0.103,0.334,-0.350,7.874,34.729,46.082
-0.034,0.424,-0.322,4.028,29.663,28.259
0.081,0.607,-0.180,5.615,27.283,15.320
-0.204,0.655,-0.176,4.517,25.330,11.536
-0.175,0.618,-0.210,6.287,27.466,5.798
0.018,0.419,-0.121,10.498,32.043,-8.728
0.164,0.232,-0.085,11.597,32.715,-24.109
0.287,0.131,-0.125,10.315,25.330,-38.940
0.279,0.125,-0.157,6.165,15.259,-50.537
0.227,0.200,-0.136,2.136,2.380,-61.401
0.182,0.228,-0.185,-2.563,-13.611,-74.097
0.117,0.305,-0.182,-5.920,-28.198,-87.219
0.061,0.364,-0.181,-7.263,-37.292,-98.450
0.027,0.401,-0.174,-7.507,-43.884,-108.643
0.021,0.407,-0.158,-8.728,-48.828,-119.385
0.036,0.425,-0.141,-9.705,-53.223,-130.371
0.059,0.447,-0.145,-10.681,-58.838,-142.578
0.115,0.470,-0.169,-12.512,-66.284,-153.992
0.142,0.520,-0.208,-15.076,-75.562,-164.490
0.112,0.577,-0.232,-16.602,-82.275,-173.889
0.107,0.614,-0.258,-18.127,-87.158,-185.913
0.117,0.641,-0.279,-19.958,-90.393,-196.350
0.096,0.675,-0.321,-22.034,-89.233,-206.116
0.086,0.750,-0.353,-23.560,-83.801,-217.041
0.055,0.845,-0.380,-24.597,-72.998,-227.234
0.028,0.990,-0.385,-23.804,-58.777,-238.220
-0.003,1.132,-0.384,-19.348,-42.542,-246.277
0.057,1.158,-0.417,-17.944,-31.677,-250.488
0.023,1.261,-0.472,-18.188,-24.170,-254.700
-0.093,1.325,-0.529,-18.250,-14.771,-259.521
-0.137,1.363,-0.580,-21.179,-5.676,-265.991
0.006,1.422,-0.613,-26.367,-2.380,-270.752
0.174,1.476,-0.598,-34.119,-6.653,-274.353
0.241,1.579,-0.555,-43.579,-16.602,-276.917
0.250,1.675,-0.555,-53.528,-30.334,-276.855
0.166,1.801,-0.529,-60.608,-44.983,-274.292
0.047,1.826,-0.547,-64.697,-57.251,-268.921
-0.130,1.858,-0.445,-65.247,-63.721,-261.536
-0.253,1.859,-0.409,-61.829,-63.660,-252.808
-0.297,1.888,-0.365,-54.810,-57.251,-241.150
-0.336,1.888,-0.348,-47.607,-48.340,-229.004
-0.376,1.865,-0.374,-38.574,-39.185,-215.698
-0.384,1.741,-0.399,-33.630,-36.621,-201.965
-0.432,1.620,-0.410,-30.579,-35.767,-184.082
-0.555,1.503,-0.411,-30.273,-36.804,-164.490
-0.748,1.416,-0.394,-29.541,-33.875,-145.020
-0.988,1.334,-0.353,-29.968,-29.785,-124.573
-1.249,1.306,-0.306,-27.710,-18.799,-96.924
-1.276,1.245,-0.208,-20.630,-6.592,-60.364
-1.097,1.164,-0.055,-12.085,2.441,-19.836
-0.734,1.111,-0.103,-5.981,2.136,14.893
-0.479,1.098,-0.167,-4.395,-5.981,40.527
-0.339,1.113,-0.255,-5.798,-16.602,57.312
-0.237,1.082,-0.347,-8.789,-31.067,68.726
-0.259,1.133,-0.293,-12.390,-45.288,79.407
-0.477,1.140,-0.180,-12.207,-47.119,91.248
-0.483,1.114,-0.196,-10.132,-49.011,103.638
-0.382,1.091,-0.230,-7.996,-48.767,110.718
-0.047,1.038,-0.283,-7.324,-46.387,108.337
0.793,1.003,-0.392,-6.165,-46.082,91.187
1.335,0.859,-0.363,-8.850,-36.987,67.383
1.291,0.898,0.044,-5.859,-20.996,56.641
0.506,0.937,0.072,-4.883,-23.010,68.054
-0.024,1.149,-0.092,-4.700,-32.898,81.970
-0.218,1.378,-0.293,-5.737,-37.231,88.623
-0.280,1.769,-0.163,-0.549,-25.818,87.769
0.023,1.638,-0.145,3.479,-11.597,83.679
0.281,1.274,-0.220,-3.906,-3.601,81.604
0.067,1.124,-0.563,-11.292,1.221,85.510
0.157,1.263,-0.298,-4.150,12.512,80.383
-0.138,1.163,-0.324,-1.404,23.193,80.566
0.108,0.994,-0.439,-0.366,22.644,78.186
0.279,0.770,-0.505,-3.967,14.954,72.998
0.190,0.666,-0.749,-9.521,9.521,71.167
-0.029,0.757,-0.715,-8.240,13.000,67.749
-0.002,0.848,-0.668,-4.822,23.865,62.195
-0.066,0.921,-0.519,-0.916,34.485,56.580
-0.002,0.952,-0.403,2.502,40.710,51.514
0.616,0.900,-0.256,5.493,41.077,42.114
0.321,0.797,-0.229,-1.831,39.185,39.856
0.181,1.032,-0.236,0.183,31.738,41.199

0.516,0.785,-0.388,0.000,11.963,25.818
-0.369,0.969,-0.425,-3.784,6.653,37.964
-0.065,1.097,-0.325,6.348,12.878,32.227
0.624,0.701,-0.348,2.808,16.602,30.945
-0.385,1.025,-0.504,-0.488,10.254,45.044
0.164,0.937,-0.370,6.104,13.977,38.147
0.341,0.875,-0.368,3.845,14.709,43.213
-0.018,0.976,-0.451,5.920,14.587,46.021
-0.037,0.857,-0.425,4.639,16.174,49.622
0.233,0.914,-0.381,7.019,19.043,49.927
0.197,0.975,-0.347,6.653,19.409,53.223
-0.019,0.972,-0.412,6.104,18.005,58.716
0.097,0.961,-0.360,7.935,17.639,60.059
0.163,0.986,-0.374,6.836,17.334,63.416
-0.209,1.134,-0.400,8.789,16.846,66.833
0.380,0.885,-0.384,9.460,19.409,64.392
-0.108,1.065,-0.427,7.446,16.296,71.716
-0.206,1.175,-0.314,10.925,17.883,74.890
0.245,0.989,-0.309,12.573,17.761,75.867
-0.083,1.098,-0.381,11.353,15.137,80.688
-0.014,1.085,-0.381,10.193,14.648,83.618
-0.090,1.189,-0.370,11.719,15.625,86.548
0.078,1.173,-0.382,12.207,19.592,87.158
-0.112,1.194,-0.473,10.559,20.996,92.102
-0.186,1.305,-0.411,12.024,30.090,92.773
0.271,1.169,-0.361,12.878,39.429,91.003
-0.224,1.257,-0.512,10.986,42.725,98.999
0.001,1.306,-0.410,15.503,49.866,100.098
0.278,1.225,-0.510,15.381,52.917,102.051
-0.037,1.325,-0.538,13.428,54.077,109.436
-0.072,1.397,-0.443,15.808,56.885,115.662
0.310,1.359,-0.307,20.447,60.242,115.540
0.347,1.367,-0.450,19.348,57.129,122.070
-0.173,1.542,-0.653,18.188,52.490,134.949
0.395,1.645,-0.497,22.766,59.143,133.484
0.473,1.564,-0.659,19.348,59.692,140.991
0.247,1.697,-0.708,20.081,61.768,151.245
0.489,1.564,-0.628,20.630,73.547,153.931
0.352,1.459,-0.615,16.174,79.224,158.386
0.316,1.423,-0.499,10.803,82.764,156.250
0.078,1.514,-0.461,9.338,84.778,154.663
-0.088,1.475,-0.403,12.695,88.684,150.024
-0.057,1.408,-0.471,14.465,85.449,145.264
-0.059,1.347,-0.536,15.808,76.965,139.954
0.100,1.272,-0.446,22.461,74.890,129.883
0.372,1.097,-0.393,29.541,74.646,118.347
0.428,0.887,-0.360,32.837,69.458,108.093
0.342,0.631,-0.415,32.104,63.843,98.572
0.253,0.447,-0.327,28.992,54.077,88.440
-0.423,0.223,-0.274,19.165,45.471,82.581
-0.463,0.313,-0.259,16.052,33.386,68.298
-0.024,0.322,-0.270,17.090,14.832,43.579
0.171,0.425,-0.221,14.771,-2.747,25.696
-0.184,0.559,-0.108,9.033,-7.812,18.127
-0.462,0.694,-0.305,4.578,-4.517,18.066
-0.043,0.584,-0.121,14.160,-1.282,1.343
0.155,0.297,-0.062,18.005,3.235,-17.883
0.290,0.130,-0.066,16.907,3.601,-34.363
0.328,0.127,-0.123,14.465,-1.648,-50.415
0.280,0.159,-0.146,10.925,-11.230,-62.073
0.259,0.213,-0.124,8.545,-23.499,-75.867
0.180,0.242,-0.124,6.592,-33.875,-87.219
0.120,0.268,-0.166,3.479,-43.640,-100.647
0.064,0.326,-0.181,1.404,-51.758,-113.403
-0.021,0.384,-0.173,0.793,-55.969,-125.793
-0.057,0.403,-0.183,0.427,-56.885,-138.611
-0.027,0.407,-0.177,-0.244,-57.678,-151.306
0.011,0.409,-0.185,-1.831,-59.326,-163.391
0.062,0.430,-0.201,-3.418,-61.584,-175.049
0.115,0.473,-0.228,-5.371,-64.087,-186.035
0.137,0.532,-0.247,-8.545,-67.017,-198.730
0.157,0.588,-0.262,-11.719,-69.702,-210.693
0.179,0.655,-0.289,-15.137,-73.059,-220.398
0.151,0.677,-0.328,-19.104,-72.510,-230.103
0.139,0.755,-0.347,-22.278,-67.566,-240.601
0.099,0.890,-0.340,-23.560,-58.167,-251.343
0.059,1.024,-0.352,-22.766,-44.678,-259.888
0.128,1.083,-0.334,-25.940,-38.818,-268.799
0.077,1.223,-0.346,-26.123,-30.701,-274.780
-0.035,1.336,-0.382,-22.705,-15.991,-279.053
-0.027,1.404,-0.437,-25.024,-6.592,-285.828
0.014,1.500,-0.516,-33.691,-8.179,-292.786
0.141,1.642,-0.580,-43.945,-20.691,-297.852
0.071,1.873,-0.629,-49.133,-35.950,-300.537
-0.055,1.980,-0.534,-49.561,-46.997,-297.302
-0.179,1.843,-0.439,-51.697,-53.711,-289.734
-0.234,1.811,-0.380,-56.091,-61.584,-280.029
-0.371,1.979,-0.426,-56.030,-62.805,-268.433
-0.471,2.125,-0.485,-51.819,-59.937,-256.042
-0.596,2.219,-0.489,-45.166,-51.453,-241.211
-0.722,2.163,-0.482,-38.879,-45.715,-225.525
-0.849,1.967,-0.474,-32.043,-41.504,-204.590
-0.981,1.728,-0.445,-29.236,-35.889,-179.138
-1.003,1.562,-0.384,-29.968,-39.063,-151.489
-1.069,1.505,-0.333,-29.785,-42.175,-126.160
-1.197,1.453,-0.306,-28.320,-42.053,-98.938
-1.279,1.395,-0.317,-22.583,-33.508,-67.078
-1.222,1.284,-0.179,-14.954,-21.790,-29.236
-1.029,1.191,-0.109,-10.254,-13.916,8.667
-0.757,1.174,-0.156,-7.751,-12.390,41.504
-0.639,1.208,-0.192,-6.104,-14.343,67.688
-0.612,1.237,-0.157,-1.709,-15.381,85.876
-0.495,1.195,-0.146,2.930,-16.663,96.924
-0.417,1.224,-0.109,7.385,-20.752,104.980
0.605,1.048,-0.348,8.484,-24.780,93.079
1.782,0.991,-0.137,11.597,-30.090,66.528
1.556,0.652,-0.179,2.625,-20.264,58.472
0.887,0.811,0.031,-1.648,-8.362,63.354
0.079,0.949,-0.065,-5.371,-20.264,77.637
-0.151,1.067,-0.459,-8.789,-32.593,89.600
-0.180,1.220,-0.423,-16.052,-35.217,90.637
0.104,1.436,-0.466,-15.991,-28.625,81.360
0.280,1.397,-0.306,-7.690,-18.799,75.195
0.083,1.117,-0.563,-13.062,-18.250,82.703
0.210,1.171,-0.618,-12.146,-17.639,86.060
0.110,1.168,-0.501,-7.935,-11.414,84.900
0.163,1.072,-0.480,-7.385,-6.714,83.679
0.145,0.871,-0.584,-11.169,-7.690,85.144
0.265,0.855,-0.558,-10.925,-11.230,83.191
0.071,0.896,-0.478,-7.507,-8.423,79.590
0.008,0.950,-0.383,-0.305,1.465,72.693
0.228,0.867,-0.271,1.587,10.925,62.988
-0.131,0.904,-0.265,-3.174,21.301,62.195
0.176,1.025,-0.256,1.770,25.330,55.237
0.317,0.881,-0.150,-0.366,29.053,46.509
0.018,0.940,-0.260,-9.216,31.250,50.232
0.130,1.076,-0.325,-6.592,27.161,49.805
0.787,0.953,-0.226,-1.465,18.433,36.743
0.050,0.801,-0.255,-12.268,14.587,42.847
-0.292,1.038,-0.516,-11.536,10.071,48.462
0.833,0.944,-0.329,1.526,6.042,29.907
-0.226,0.695,-0.371,-15.320,8.667,36.682
0.040,1.090,-0.581,-7.812,14.771,37.170
0.464,0.923,-0.277,-1.648,22.156,25.940
-0.067,0.850,-0.447,-9.338,28.687,29.785
0.119,0.944,-0.395,-3.540,35.522,26.672
0.273,0.947,-0.356,-2.197,41.809,21.240
0.142,0.859,-0.309,-1.648,43.335,18.555
0.235,0.846,-0.327,-2.747,42.908,16.296
0.147,0.936,-0.385,-4.150,43.335,14.832
0.315,0.905,-0.367,-2.014,40.649,11.353
0.014,0.829,-0.372,-5.798,35.278,14.038
0.305,0.980,-0.440,-2.075,32.654,9.155
0.322,0.727,-0.405,-4.578,29.236,5.859
-0.067,0.935,-0.365,-4.639,27.832,13.245
0.044,1.006,-0.403,0.427,29.968,9.094
0.284,0.810,-0.381,-0.061,28.564,6.958
0.187,0.935,-0.383,-0.061,26.794,10.254
0.133,0.856,-0.427,-0.305,23.621,10.620
0.156,0.968,-0.386,2.441,22.156,12.451
0.242,0.877,-0.394,2.625,20.386,11.292
0.121,0.916,-0.371,2.869,20.020,15.137
0.127,0.932,-0.379,4.639,20.752,14.465
0.394,0.815,-0.390,3.418,21.240,12.451
0.078,0.895,-0.392,1.465,18.982,20.386
0.187,0.917,-0.386,3.601,17.639,20.142
0.497,0.817,-0.359,1.526,15.137,19.653
0.017,0.929,-0.380,0.793,13.062,28.137
-0.131,0.946,-0.396,2.747,12.207,31.738
0.437,0.911,-0.384,6.042,13.611,26.855
0.451,0.772,-0.440,0.977,12.756,28.809
-0.491,0.994,-0.420,2.319,12.817,41.504
0.230,1.006,-0.308,10.254,17.029,33.508
0.529,0.638,-0.505,2.136,14.099,36.499
-0.472,1.119,-0.421,6.775,16.968,47.852
0.330,0.875,-0.365,7.446,17.029,38.940
0.269,0.862,-0.489,3.845,14.404,42.908
-0.027,1.028,-0.369,7.263,18.799,42.542
-0.036,0.955,-0.382,4.700,18.005,43.335
0.128,0.933,-0.393,7.019,20.996,42.358
0.166,0.915,-0.316,6.775,23.621,43.213
0.014,0.924,-0.380,6.592,22.461,47.302
0.113,0.904,-0.420,9.033,22.949,49.072
0.184,0.898,-0.438,8.545,24.048,52.734
-0.163,1.065,-0.362,13.062,25.330,59.448
0.412,0.787,-0.414,14.587,28.137,57.373
-0.019,1.006,-0.449,11.475,23.621,67.444
-0.129,1.071,-0.259,15.259,23.254,71.411
0.239,0.942,-0.385,15.381,21.301,71.289
-0.101,1.113,-0.393,14.404,18.494,74.341
-0.045,1.009,-0.389,12.085,17.517,74.524
-0.161,1.208,-0.344,15.747,18.921,75.623
0.037,1.026,-0.364,15.442,22.339,74.524
-0.092,1.139,-0.369,16.541,22.644,78.674
-0.111,1.180,-0.311,18.738,26.550,79.468
0.192,1.071,-0.389,19.653,29.114,78.369
-0.185,1.144,-0.499,18.494,30.273,84.534
-0.034,1.171,-0.311,22.461,34.241,84.045
0.192,1.091,-0.440,23.499,35.767,85.144
-0.146,1.172,-0.497,22.095,34.912,91.370
-0.277,1.288,-0.479,24.353,35.828,94.849
0.223,1.213,-0.422,29.968,42.847,91.309
0.122,1.115,-0.599,24.902,47.180,96.252
-0.457,1.350,-0.488,25.452,50.964,105.835
0.400,1.359,-0.145,33.813,59.143,103.210
0.082,1.265,-0.430,28.992,53.223,114.807
-0.019,1.561,-0.311,32.043,51.758,124.634
0.458,1.561,-0.324,32.166,49.438,127.930
0.245,1.643,-0.474,31.555,47.791,134.094
0.435,1.576,-0.517,30.884,49.927,138.672
0.445,1.487,-0.513,26.978,52.612,147.522
0.470,1.416,-0.462,21.240,52.307,151.489
0.326,1.382,-0.463,14.709,47.607,152.710
0.036,1.510,-0.434,12.939,49.316,152.588
0.033,1.509,-0.483,16.541,50.659,149.963
0.002,1.411,-0.470,17.029,45.959,147.705
-0.219,1.397,-0.464,19.348,43.823,146.484
0.001,1.240,-0.529,22.034,40.894,140.991
0.184,1.137,-0.508,22.095,33.020,135.071
0.148,1.024,-0.427,22.766,31.555,127.991
0.224,0.844,-0.406,24.292,32.898,118.896
0.215,0.625,-0.371,24.048,31.616,106.812
-0.091,0.421,-0.268,19.348,32.471,95.642
-0.647,0.301,-0.333,12.634,33.691,86.853
-0.433,0.382,-0.312,13.733,26.794,68.176
-0.098,0.344,-0.350,11.169,19.348,44.128
0.011,0.447,-0.293,9.705,15.625,26.672
0.021,0.591,-0.126,9.888,12.024,15.442
-0.343,0.607,-0.313,6.287,10.437,14.221
-0.075,0.520,-0.216,10.925,14.038,0.305
0.176,0.298,-0.131,15.747,18.555,-19.836
0.349,0.145,-0.098,17.029,16.418,-37.109
0.386,0.116,-0.137,14.587,9.949,-49.683
0.428,0.171,-0.162,10.254,-4.761,-62.988
