aX,aY,aZ,gX,gY,gZ
0.181,0.603,-0.290,-2.930,-68.115,-250.122
0.220,0.709,-0.326,-9.460,-71.716,-268.005
0.242,0.785,-0.352,-14.465,-73.669,-277.161
0.199,0.860,-0.403,-21.606,-72.632,-287.292
0.252,0.984,-0.383,-24.841,-67.383,-295.166
0.281,0.991,-0.402,-33.264,-59.387,-309.265
0.310,1.218,-0.456,-40.833,-67.932,-316.223
0.254,1.395,-0.481,-38.696,-68.481,-313.049
0.164,1.532,-0.491,-38.330,-59.692,-317.383
0.040,1.720,-0.537,-36.743,-49.988,-322.510
-0.029,1.867,-0.608,-35.583,-39.612,-324.158
-0.006,2.038,-0.662,-39.246,-39.246,-327.637
-0.067,2.117,-0.677,-41.687,-43.152,-326.721
-0.255,2.209,-0.576,-43.091,-46.265,-323.303
-0.472,2.158,-0.505,-44.922,-47.241,-315.125
-0.693,2.155,-0.430,-48.767,-43.945,-306.519
-0.676,2.269,-0.514,-53.162,-48.157,-297.485
-0.611,2.429,-0.519,-53.528,-52.185,-279.480
-0.625,2.485,-0.600,-49.988,-62.378,-256.348
-0.801,2.277,-0.712,-45.776,-71.289,-229.553
-1.015,1.922,-0.707,-46.143,-76.355,-198.792
-1.534,1.843,-0.659,-44.556,-66.101,-163.818
-2.174,1.757,-0.493,-37.720,-33.203,-122.375
-2.305,1.522,-0.140,-24.902,7.324,-65.857
-1.716,1.238,-0.015,-16.052,18.616,-2.869
-1.058,1.238,-0.023,-12.695,1.160,56.824
-0.817,1.396,-0.177,-10.193,-26.550,102.905
-0.849,1.416,-0.279,-10.681,-52.490,130.249
-0.954,1.411,-0.237,-12.451,-69.153,150.574
-1.182,1.382,-0.152,-12.817,-72.998,168.335
-0.664,1.271,-0.357,-11.169,-72.510,168.762
0.802,1.099,-0.665,-9.094,-73.608,140.808
2.170,1.033,-0.542,-6.287,-62.012,104.187
1.635,1.002,0.026,-0.732,-20.081,100.952
0.353,1.313,0.626,7.874,-14.465,135.559
-0.348,1.340,-0.027,-1.282,-55.664,171.265
-0.602,1.479,-0.244,-18.433,-83.374,191.772
-0.163,1.918,-0.648,-16.235,-81.604,183.777
-0.335,1.708,0.025,-13.977,-69.946,169.434
-0.069,1.162,-0.991,-33.936,-49.866,164.673
-0.640,1.235,0.025,-31.677,-21.301,159.546
0.039,1.183,-0.455,-22.705,-5.432,151.978
-0.219,0.721,-0.343,-29.114,-1.282,138.733
-0.150,0.684,-0.796,-40.588,-0.671,125.244
-0.553,0.960,-0.824,-38.330,8.118,115.662
-0.177,1.355,-0.429,-20.142,30.090,101.135
-0.404,1.135,-0.509,-16.602,50.110,90.210
-0.017,1.165,-0.358,-12.146,62.012,79.834
-0.650,1.237,-0.635,-9.460,72.205,83.191
0.331,1.101,-0.155,9.277,75.378,64.880
-0.213,0.894,-0.337,-2.930,79.041,58.594
0.267,1.002,-0.349,1.648,72.205,50.476
-0.015,1.001,-0.324,-5.127,67.383,44.922
0.791,1.081,-0.308,3.235,54.993,36.011
-0.240,0.925,-0.341,-6.104,47.241,35.339
0.775,0.942,-0.364,3.113,36.072,23.499
-0.715,0.919,-0.392,-9.277,31.433,30.579
0.645,0.985,-0.509,9.949,28.320,10.986
-0.463,0.497,-0.500,-12.268,24.475,18.555
0.240,1.451,-0.368,12.329,26.794,12.939
-0.497,0.361,-0.595,-7.385,23.926,12.695
0.396,1.380,-0.202,12.451,34.424,9.583
0.028,0.530,-0.475,-1.343,29.053,6.226
0.266,1.049,-0.250,7.507,37.170,10.315
0.166,0.824,-0.360,2.014,33.691,6.348
0.110,0.874,-0.388,0.671,33.691,12.817
0.133,0.931,-0.393,3.113,34.668,11.963
0.177,0.944,-0.368,5.249,36.682,13.000
0.121,0.743,-0.455,0.183,35.217,15.808
-0.197,1.192,-0.322,6.042,36.011,23.193
0.124,0.732,-0.409,3.967,38.269,18.127
-0.096,0.986,-0.307,2.686,38.818,26.428
0.148,0.841,-0.363,3.601,43.152,22.522
-0.055,0.917,-0.356,0.305,40.527,26.978
0.419,0.894,-0.288,2.258,44.739,21.118
-0.203,0.977,-0.410,-3.296,38.879,28.870
0.541,0.865,-0.289,0.549,38.330,24.109
-0.555,1.057,-0.460,-7.446,26.123,41.565
0.753,0.992,-0.155,7.874,32.349,29.907
-0.562,0.559,-0.780,-18.555,17.578,51.270
0.672,1.437,-0.069,10.681,25.696,48.096
-0.720,0.620,-0.747,-15.930,16.968,65.125
0.766,1.176,-0.162,13.550,26.489,62.866
-0.164,0.867,-0.532,-3.601,20.325,76.843
0.232,1.039,-0.428,10.864,24.170,78.247
0.130,1.029,-0.448,5.615,22.217,85.449
0.042,1.234,-0.473,10.681,24.048,88.989
-0.116,1.076,-0.500,10.132,25.513,94.971
0.417,1.153,-0.337,13.367,27.039,95.764
-0.557,1.283,-0.506,9.399,22.278,109.680
0.299,1.210,-0.164,15.930,26.001,108.398
-0.128,1.359,-0.418,14.648,20.935,120.911
0.054,1.394,-0.195,19.531,24.902,124.695
0.060,1.246,-0.596,17.700,23.437,133.484
0.367,1.456,-0.325,23.743,30.640,135.010
-0.099,1.285,-0.814,18.372,33.264,145.203
0.349,1.462,-0.385,23.926,45.227,146.057
-0.305,1.534,-0.762,20.630,49.377,158.875
0.501,1.757,-0.189,33.081,69.031,152.527
-0.024,1.625,-0.822,26.184,70.129,167.725
0.589,2.125,-0.395,38.269,83.374,174.622
0.346,2.037,-0.861,29.358,84.839,188.599
1.002,2.170,-0.573,38.208,99.060,193.298
1.086,1.999,-0.737,33.081,112.305,203.247
1.013,1.762,-0.508,25.269,115.906,209.595
0.945,1.836,-0.560,9.338,108.398,208.191
0.501,1.992,-0.610,8.667,100.647,208.679
0.391,1.977,-0.691,11.353,89.111,204.224
0.169,1.874,-0.835,17.090,68.176,203.613
0.318,1.592,-0.869,17.639,53.040,191.895
0.620,1.405,-0.788,19.653,45.837,176.025
0.945,1.031,-0.759,19.165,37.659,156.860
0.829,0.798,-0.420,16.296,31.616,133.362
0.185,0.579,-0.264,9.705,32.043,113.403
-0.773,0.382,-0.451,4.150,28.992,100.708
-0.071,0.389,-0.436,10.376,9.338,67.871
0.394,0.328,-0.270,14.771,-11.597,32.166
0.753,0.420,-0.219,16.052,-29.968,7.690
0.152,0.505,-0.101,7.202,-33.997,-2.380
-0.066,0.515,-0.367,2.991,-30.334,-9.033
0.278,0.294,-0.138,12.390,-23.499,-39.551
0.469,-0.001,-0.100,18.250,-16.418,-71.411
0.523,-0.135,-0.089,17.822,-11.353,-98.083
0.445,-0.114,-0.114,12.634,-10.376,-118.774
0.410,-0.007,-0.166,8.911,-17.761,-133.545
0.313,0.119,-0.190,6.836,-24.170,-147.034
0.163,0.210,-0.234,5.920,-27.588,-162.903
0.075,0.276,-0.279,6.531,-31.189,-178.955
0.046,0.330,-0.289,7.629,-35.583,-193.909
0.075,0.363,-0.292,6.836,-42.542,-206.726
0.069,0.401,-0.280,4.944,-49.500,-218.079
0.086,0.441,-0.279,2.930,-54.565,-228.760
0.116,0.480,-0.275,0.549,-58.655,-240.356
0.130,0.555,-0.290,-1.709,-61.768,-250.671
0.170,0.628,-0.313,-2.625,-62.195,-259.583
0.231,0.654,-0.329,-9.094,-67.383,-272.583
0.270,0.707,-0.379,-15.259,-72.449,-281.677
0.265,0.814,-0.430,-20.813,-75.867,-287.720
0.217,0.949,-0.416,-25.635,-72.510,-297.180
0.211,1.025,-0.442,-32.166,-67.627,-308.838
0.253,1.178,-0.432,-38.330,-64.941,-315.491
0.190,1.362,-0.456,-40.100,-58.960,-319.763
0.096,1.525,-0.478,-39.124,-46.021,-326.904
0.037,1.698,-0.519,-36.499,-33.386,-332.703
0.041,1.831,-0.574,-36.804,-25.696,-336.121
0.044,1.925,-0.596,-41.199,-25.757,-338.013
-0.069,2.156,-0.633,-46.204,-32.227,-340.332
-0.237,2.348,-0.623,-43.579,-35.461,-337.402
-0.382,2.377,-0.503,-39.429,-35.950,-327.881
-0.638,2.309,-0.446,-40.283,-35.034,-313.477
-0.687,2.220,-0.502,-46.753,-40.161,-296.875
-0.557,2.285,-0.481,-51.636,-48.462,-275.818
-0.574,2.361,-0.531,-50.903,-61.951,-251.709
-0.706,2.218,-0.609,-46.265,-71.777,-224.426
-0.857,1.941,-0.551,-44.373,-78.430,-197.021
-1.308,1.811,-0.525,-43.701,-75.623,-168.030
-1.997,1.792,-0.434,-35.889,-48.035,-131.958
-2.255,1.558,-0.225,-19.470,-6.104,-80.688
-1.771,1.202,-0.098,-9.888,17.456,-20.813
-1.149,1.112,-0.195,-8.850,15.015,36.316
-0.803,1.313,-0.396,-6.165,-6.653,85.510
-0.860,1.360,-0.415,-5.859,-24.231,112.061
-0.927,1.376,-0.384,-7.690,-35.828,130.798
-1.156,1.367,-0.148,-8.606,-40.833,150.696
-1.151,1.374,-0.297,-8.728,-41.870,164.490
-0.381,1.329,-0.497,-7.812,-43.640,156.555
1.196,1.219,-0.757,-6.409,-47.119,129.089
2.216,1.136,-0.404,1.343,-21.729,99.548
1.461,1.327,0.569,16.052,7.263,107.056
0.040,1.351,0.578,16.174,-19.104,147.583
-0.441,1.421,-0.043,2.075,-57.861,168.457
-0.636,1.680,-0.302,-13.367,-70.313,172.791
-0.046,1.634,-0.666,-12.634,-73.792,166.138
-0.236,1.361,-0.358,-13.794,-59.326,153.198
-0.566,1.279,-0.516,-17.395,-24.841,148.987
-0.411,1.416,0.108,-2.441,11.658,137.573
0.166,0.849,-0.338,-6.958,22.644,125.793
-0.112,0.578,-0.455,-24.048,22.278,114.746
0.127,0.730,-0.970,-31.189,20.508,107.788
-0.815,0.843,-0.900,-38.208,27.710,108.032
0.179,1.404,-0.970,-16.235,36.133,97.656
-0.487,1.065,-0.248,-6.714,48.828,88.257
0.388,1.527,-0.557,8.423,50.232,85.449
-0.868,0.600,-0.470,-2.197,49.744,78.003
0.758,1.565,-0.061,20.508,53.467,66.162
-0.363,0.580,-0.355,-0.793,50.781,60.303
0.380,1.234,-0.168,9.827,48.340,53.284
0.149,0.887,-0.302,-2.380,41.565,44.250
0.216,1.138,-0.212,1.587,34.546,43.335
-0.132,0.907,-0.339,-2.258,27.832,36.194
0.490,0.993,-0.290,2.258,22.461,27.954
-0.620,0.874,-0.461,-5.615,22.278,30.396
0.297,0.950,-0.386,6.165,23.499,19.104
-0.073,0.823,-0.397,-2.136,26.062,19.287
-0.047,0.938,-0.452,6.409,26.489,18.311
0.155,0.732,-0.422,0.000,27.039,14.343
0.208,0.997,-0.334,5.249,28.137,14.038
0.307,0.648,-0.361,-0.916,28.931,12.878
0.152,1.145,-0.273,5.127,29.785,15.320
0.249,0.620,-0.387,-4.272,26.855,16.602
-0.288,1.271,-0.311,4.333,26.733,24.963
0.908,0.563,-0.286,2.258,25.818,14.893
-0.801,1.096,-0.545,-6.348,20.264,36.804
0.599,0.717,-0.302,4.517,24.170,22.583
-0.580,1.206,-0.392,-3.784,21.545,41.077
0.573,0.589,-0.374,4.578,28.259,25.696
-0.082,1.038,-0.378,-2.686,28.015,38.757
0.093,0.812,-0.357,0.183,32.471,30.090
0.073,0.965,-0.334,-3.174,32.715,35.095
0.096,0.979,-0.302,-2.380,33.569,32.288
-0.089,1.015,-0.324,-1.953,32.227,35.156
0.274,0.878,-0.345,-4.700,32.837,31.860
-0.549,1.256,-0.354,-2.319,32.349,43.274
0.308,0.826,-0.327,-1.160,36.926,35.583
-0.136,1.094,-0.422,-1.648,33.691,50.354
0.153,0.940,-0.371,1.099,36.865,49.927
0.027,0.992,-0.502,-1.282,34.180,60.547
0.537,1.051,-0.316,5.676,38.147,59.814
-0.245,0.943,-0.571,0.366,36.072,71.594
0.471,1.092,-0.295,9.277,42.358,69.763
-0.607,1.188,-0.630,3.174,36.926,85.876
0.571,1.369,-0.026,22.888,48.889,77.454
-0.396,0.830,-0.933,2.563,36.987,94.666
0.525,1.696,0.311,27.222,41.504,97.107
-0.570,0.982,-0.907,8.057,29.053,112.305
0.570,1.305,0.195,27.466,30.640,111.511
-0.010,1.236,-0.736,15.198,22.217,121.521
0.106,1.246,-0.259,23.499,24.536,123.840
0.162,1.361,-0.652,22.705,25.696,131.287
0.101,1.422,-0.447,27.161,30.823,136.414
0.091,1.446,-0.621,29.785,35.400,143.188
0.418,1.375,-0.442,31.250,43.091,147.705
-0.183,1.727,-0.687,33.386,50.049,161.987
0.543,1.564,-0.491,38.086,68.054,162.964
0.413,1.777,-0.701,39.978,76.233,176.147
0.817,1.904,-0.598,39.795,86.121,184.937
0.852,2.019,-0.780,37.231,85.449,199.646
1.239,1.933,-0.705,34.363,92.896,208.923

-0.898,0.288,-0.790,-10.132,12.390,34.241
0.680,1.372,-0.079,13.184,24.353,21.973
-0.218,0.411,-0.699,-1.221,21.790,22.888
0.353,1.046,-0.138,8.118,33.997,20.386
0.120,0.786,-0.496,1.221,33.142,20.142
0.187,0.972,-0.267,1.709,32.776,23.926
0.199,0.961,-0.294,0.549,27.222,23.560
0.328,0.969,-0.237,2.625,21.484,23.621
-0.081,0.737,-0.412,-5.432,14.099,30.029
-0.010,1.140,-0.281,1.526,13.367,31.921
0.078,0.713,-0.382,-0.854,9.705,31.189
-0.030,0.964,-0.312,1.282,7.874,35.583
0.098,0.839,-0.409,-0.610,9.338,32.837
-0.086,0.945,-0.422,-1.099,12.329,34.485
0.370,0.880,-0.279,0.366,18.982,29.846
-0.118,1.012,-0.460,-1.099,20.691,34.851
0.278,0.797,-0.284,-1.465,28.198,30.518
-0.633,1.117,-0.483,-2.441,25.269,43.579
0.751,0.888,-0.092,5.920,38.086,26.245
-0.873,0.809,-0.749,-10.193,22.644,52.124
0.700,1.077,-0.062,4.822,33.813,32.654
-0.822,0.979,-0.654,-7.385,22.156,58.777
0.648,0.782,-0.250,3.784,35.645,39.124
-0.097,1.016,-0.454,-5.920,25.818,59.204
0.125,0.978,-0.465,-1.221,31.433,50.842
0.090,0.989,-0.276,-3.479,31.250,62.073
0.034,1.136,-0.432,-0.366,34.790,62.073
-0.049,1.055,-0.414,-0.366,38.147,69.397
0.359,1.032,-0.368,1.099,40.588,70.801
-0.429,1.338,-0.518,0.244,35.278,85.144
0.295,1.113,-0.396,2.441,42.603,82.825
-0.167,1.324,-0.506,2.014,37.109,96.313
0.226,1.326,-0.206,4.883,43.335,98.267
-0.089,1.322,-0.448,4.456,37.781,108.826
0.519,1.385,-0.087,8.667,40.955,109.558
-0.192,1.349,-0.543,6.226,30.151,121.765
0.470,1.302,-0.233,8.179,34.790,120.605
-0.452,1.440,-0.749,5.005,25.269,136.963
0.737,1.476,-0.172,15.137,44.312,127.563
-0.697,1.327,-1.093,3.174,32.349,152.466
0.805,1.615,-0.089,20.142,59.937,143.127
-0.125,1.618,-1.014,15.076,58.777,163.330
0.727,1.464,-0.371,20.813,81.482,158.020
0.217,1.833,-0.868,19.897,84.595,168.213
0.765,1.853,-0.590,24.170,106.689,165.344
1.064,2.156,-0.827,30.823,111.023,182.312
0.895,1.999,-0.844,34.973,113.037,197.876
0.791,1.990,-0.803,24.841,109.863,205.200
0.658,1.929,-0.784,17.395,106.689,207.458
0.311,1.938,-0.693,6.287,97.656,206.909
0.107,1.876,-0.722,4.272,83.252,204.773
0.224,1.802,-0.824,6.287,72.449,193.726
0.439,1.638,-0.694,14.709,78.491,179.077
0.783,1.278,-0.791,17.700,84.473,162.415
0.796,0.955,-0.627,14.465,83.923,144.043
0.414,0.756,-0.390,9.766,85.388,122.375
-0.183,0.545,-0.299,7.019,78.064,104.248
-0.246,0.255,-0.516,-2.686,54.993,83.313
0.248,0.370,-0.331,-4.395,31.921,53.894
0.549,0.371,-0.262,-4.822,9.583,26.245
0.665,0.524,-0.057,-8.179,-4.578,5.615
-0.036,0.455,-0.301,-24.048,-0.610,-1.282
0.208,0.432,-0.208,-22.827,3.723,-21.606
0.465,0.183,-0.040,-17.151,13.123,-53.650
0.561,0.008,-0.010,-15.991,19.104,-80.566
0.492,-0.008,-0.036,-18.127,22.705,-99.854
0.443,0.071,-0.086,-22.278,16.541,-114.624
0.352,0.197,-0.093,-25.024,8.850,-127.136
0.251,0.276,-0.134,-25.696,0.671,-141.174
0.174,0.333,-0.145,-25.024,-7.507,-156.006
0.126,0.377,-0.146,-24.231,-16.663,-172.424
0.112,0.420,-0.151,-24.292,-24.658,-187.683
0.099,0.461,-0.139,-26.062,-32.227,-202.576
0.118,0.489,-0.140,-27.283,-39.795,-216.736
0.157,0.512,-0.136,-27.649,-47.668,-229.736
0.221,0.522,-0.157,-28.320,-57.434,-241.638
0.205,0.558,-0.196,-30.212,-66.406,-251.831
0.198,0.596,-0.240,-32.288,-72.632,-261.597
0.260,0.647,-0.254,-35.645,-78.918,-272.644
0.271,0.718,-0.291,-39.795,-84.167,-283.752
0.250,0.815,-0.339,-43.457,-86.121,-294.128
0.213,0.911,-0.388,-46.875,-80.566,-304.932
0.214,1.050,-0.431,-48.889,-68.665,-315.857
0.241,1.208,-0.377,-48.523,-58.044,-326.599
0.223,1.397,-0.336,-47.241,-50.537,-334.045
0.151,1.555,-0.388,-48.828,-46.692,-345.459
0.158,1.718,-0.412,-50.476,-47.241,-347.656
-0.049,1.822,-0.450,-45.837,-17.029,-361.145
0.009,2.013,-0.543,-36.682,1.282,-352.661
0.034,2.176,-0.622,-29.541,1.587,-340.698
-0.047,2.262,-0.631,-30.762,-8.789,-327.637
-0.480,2.361,-0.475,-33.142,-9.644,-318.054
-0.670,2.304,-0.447,-43.213,-20.142,-313.843
-0.673,2.289,-0.459,-54.138,-43.518,-300.903
-0.700,2.302,-0.502,-61.157,-61.218,-275.818
-0.770,2.383,-0.490,-60.974,-76.538,-247.192
-0.871,2.249,-0.511,-54.443,-87.463,-216.614
-0.941,1.984,-0.472,-48.523,-93.750,-184.631
-1.261,1.839,-0.396,-45.166,-96.252,-152.161
-1.757,1.791,-0.329,-42.358,-84.106,-116.211
-2.111,1.651,-0.161,-34.973,-53.589,-70.679
-1.946,1.372,-0.026,-26.489,-26.489,-15.625
-1.503,1.291,0.003,-20.386,-21.240,41.870
-1.111,1.354,-0.034,-15.564,-33.386,92.224
-0.962,1.426,-0.119,-11.414,-59.448,129.211
-0.837,1.392,-0.226,-13.306,-84.595,154.236
-1.092,1.457,-0.110,-14.404,-99.976,181.213
-0.906,1.349,-0.317,-15.259,-109.497,193.176
0.707,1.096,-0.848,-14.465,-115.234,162.781
2.838,0.846,-1.153,-14.587,-100.464,106.079
2.494,0.883,-0.117,-7.690,-30.273,77.515
0.402,1.495,1.176,18.799,1.343,119.507
-1.108,1.384,0.238,16.418,-44.373,174.194
-1.404,1.559,-0.283,3.967,-70.862,198.486
-0.492,1.945,-0.789,-6.592,-63.477,186.829
0.133,1.909,-0.441,-12.207,-42.786,164.246
0.176,1.365,-0.596,-21.301,-14.526,153.931
-0.272,1.245,-0.017,-18.250,9.521,154.358
0.082,0.969,-0.429,-21.362,6.348,153.748
-0.446,0.707,-0.573,-40.771,-11.658,151.794
-0.102,0.915,-1.277,-47.791,-31.982,137.451
-0.723,1.214,-0.237,-30.884,-17.883,123.779
-0.193,1.294,-0.672,-18.921,5.127,115.662
-1.147,0.971,-0.256,-22.034,24.292,105.896
0.349,1.502,-0.671,1.099,53.101,83.069
-0.448,0.932,-0.318,6.165,68.848,72.021
0.143,1.275,-0.256,14.282,79.468,61.279
0.039,0.796,-0.447,10.620,76.111,53.467
0.146,1.035,-0.363,2.563,76.599,49.011
0.120,0.948,-0.288,4.028,62.988,43.213
0.588,1.092,-0.270,5.920,45.654,34.363
-0.418,0.775,-0.359,-4.883,29.297,37.292
0.483,1.195,-0.285,7.874,22.339,24.841
-0.214,0.697,-0.473,-2.136,17.273,19.836
-0.126,0.900,-0.441,3.418,16.785,16.174
0.066,0.818,-0.446,3.052,17.578,6.409
-0.050,0.964,-0.377,6.958,22.461,4.333
0.343,0.733,-0.328,6.897,26.428,-2.441
-0.170,1.016,-0.378,5.676,31.616,2.075
0.504,0.724,-0.328,5.310,33.508,-3.967
-0.465,1.073,-0.321,1.526,31.128,13.367
0.865,0.796,-0.240,9.277,38.086,-3.296
-0.586,0.708,-0.510,-9.460,24.658,21.667
0.567,1.152,-0.082,8.118,36.621,9.216
-0.583,0.666,-0.643,-8.789,17.395,28.259
0.723,1.044,-0.028,7.141,29.724,13.245
-0.187,0.764,-0.626,-6.531,19.348,27.100
0.223,0.839,-0.269,1.953,28.076,20.874
0.115,0.910,-0.475,-3.174,24.536,25.696
0.085,0.916,-0.417,-1.526,28.259,25.085
-0.049,0.963,-0.490,-0.488,29.236,28.748
0.360,0.957,-0.293,1.770,34.424,25.574
-0.470,0.916,-0.587,-2.991,30.884,39.124
0.289,0.919,-0.217,4.944,37.292,35.645
0.107,0.839,-0.428,-1.648,30.396,50.415
0.211,0.876,-0.352,1.709,29.480,54.382
0.192,0.840,-0.444,-2.380,25.574,64.270
0.486,1.102,-0.382,1.709,25.574,64.697
-0.083,0.930,-0.590,-3.967,23.621,74.036
0.385,1.231,-0.302,4.944,30.884,70.557
-0.504,0.994,-0.592,-1.526,29.663,85.510
0.282,1.266,-0.120,15.930,42.603,75.378
-0.111,0.618,-0.729,-1.160,37.842,89.844
-0.014,1.782,-0.016,17.273,41.504,90.088
-0.363,0.813,-0.848,2.319,40.222,103.027
0.397,1.423,0.036,18.555,42.603,101.074
0.219,1.182,-0.515,6.653,35.889,114.563
-0.048,1.333,-0.172,10.864,34.607,115.479
0.281,1.370,-0.432,9.888,29.114,125.305
0.053,1.393,-0.269,11.597,26.550,128.418
-0.061,1.425,-0.611,13.000,27.771,135.681
0.364,1.318,-0.402,14.038,35.339,137.390
-0.487,1.622,-0.747,12.817,37.964,151.550
0.196,1.399,-0.463,18.372,56.580,152.344
0.209,1.639,-0.600,21.484,64.575,161.682
0.314,1.656,-0.487,23.376,83.679,166.382
0.217,1.778,-0.648,25.940,93.933,170.410
0.906,1.885,-0.519,28.992,107.483,169.678
0.875,2.160,-0.768,32.715,106.384,186.279
1.353,2.036,-0.785,40.039,110.962,197.205
0.754,1.967,-0.847,32.593,110.535,210.754
0.945,1.806,-0.648,20.996,112.366,209.229
0.432,1.845,-0.737,3.967,100.220,213.318
0.084,2.110,-0.574,13.550,96.619,210.327
-0.021,1.786,-0.886,8.484,86.060,200.806
-0.030,1.810,-0.978,20.386,80.688,195.312
0.688,1.456,-0.795,25.269,81.543,178.162
1.126,1.100,-0.869,22.217,65.430,159.119
1.059,0.813,-0.567,16.663,48.645,136.902
0.501,0.614,-0.286,9.583,47.363,113.953
-0.679,0.398,-0.211,-0.183,49.805,103.333
-0.590,0.332,-0.435,-0.732,39.612,81.848
0.228,0.353,-0.232,5.859,16.785,47.485
0.491,0.309,-0.201,9.338,-8.118,20.081
0.522,0.498,0.006,3.967,-23.743,3.784
-0.282,0.534,-0.390,-10.315,-19.409,2.747
0.222,0.451,-0.190,-2.747,-19.348,-19.226
0.512,0.120,-0.042,4.395,-19.104,-49.316
0.556,-0.093,-0.025,4.456,-15.930,-75.745
0.504,-0.093,-0.051,-0.183,-15.808,-97.900
0.414,-0.010,-0.108,-3.906,-19.409,-113.159
0.364,0.111,-0.137,-5.981,-26.978,-126.038
0.285,0.185,-0.185,-6.348,-34.668,-140.320
0.204,0.269,-0.217,-5.371,-42.175,-157.959
0.123,0.332,-0.243,-4.944,-47.974,-174.927
0.106,0.396,-0.265,-5.371,-53.589,-189.514
0.093,0.472,-0.264,-5.798,-59.631,-202.393
0.086,0.534,-0.262,-5.615,-63.232,-213.806
0.099,0.567,-0.261,-5.920,-65.979,-224.976
0.117,0.603,-0.259,-6.042,-66.650,-235.962
0.144,0.636,-0.254,-6.714,-67.017,-246.216
0.218,0.674,-0.267,-8.606,-69.946,-255.798
0.253,0.741,-0.280,-11.353,-74.463,-265.625
0.244,0.791,-0.301,-16.174,-78.186,-277.100
0.217,0.936,-0.322,-19.714,-74.768,-286.621
0.157,0.927,-0.359,-26.001,-63.843,-302.307
0.226,1.017,-0.339,-28.809,-57.800,-315.308
0.343,1.152,-0.353,-30.029,-57.495,-317.810
0.316,1.360,-0.343,-30.090,-56.396,-320.129
0.297,1.471,-0.352,-31.738,-53.223,-325.562
0.247,1.614,-0.378,-33.142,-48.584,-329.529
0.174,1.763,-0.454,-34.119,-44.067,-332.214
0.142,1.961,-0.548,-37.292,-47.607,-334.106
0.036,2.152,-0.588,-36.560,-55.725,-331.421
-0.139,2.280,-0.598,-35.645,-63.232,-328.003
-0.454,2.435,-0.505,-34.546,-61.218,-320.801
-0.726,2.522,-0.396,-35.706,-60.852,-312.561
-0.948,2.537,-0.411,-35.400,-62.683,-302.429
-1.093,2.359,-0.628,-37.354,-64.758,-282.043
-1.038,2.193,-0.562,-44.861,-71.533,-255.005
-1.057,2.145,-0.592,-46.021,-81.299,-222.046
-1.171,1.937,-0.688,-44.250,-91.614,-184.937
-1.321,1.741,-0.635,-42.542,-95.215,-150.696
-1.647,1.689,-0.548,-38.208,-87.219,-114.380
-1.918,1.568,-0.430,-27.161,-60.974,-70.313
-1.813,1.293,-0.237,-18.677,-34.363,-20.447
-1.329,1.160,-0.272,-13.733,-22.400,31.433
-1.031,1.239,-0.413,-12.207,-25.208,72.449

0.642,0.537,-0.201,10.803,-14.343,41.016
0.246,0.599,-0.047,0.610,-29.907,26.245
-0.214,0.697,-0.544,-11.719,-30.090,21.545
0.348,0.628,-0.231,-0.061,-25.024,-11.963
0.614,0.237,-0.146,8.362,-18.860,-47.791
0.685,0.007,-0.087,10.315,-12.573,-76.965
0.557,-0.028,-0.104,7.690,-7.385,-100.830
0.495,0.023,-0.143,4.211,-11.597,-119.629
0.433,0.139,-0.172,2.319,-19.714,-136.841
0.329,0.234,-0.217,1.892,-28.870,-153.687
0.232,0.295,-0.239,2.808,-35.950,-171.692
0.123,0.356,-0.244,4.761,-38.269,-188.965
0.077,0.410,-0.228,5.737,-41.687,-205.994
0.074,0.452,-0.210,6.958,-44.861,-223.694
0.103,0.485,-0.213,7.812,-46.509,-238.525
0.115,0.496,-0.235,6.470,-47.668,-252.258
0.131,0.502,-0.277,3.906,-49.072,-265.259
0.140,0.533,-0.295,1.587,-49.805,-276.978
0.181,0.587,-0.299,-0.854,-51.147,-287.109
0.230,0.626,-0.318,-5.066,-53.528,-296.753
0.287,0.694,-0.339,-10.742,-56.641,-306.152
0.289,0.785,-0.378,-17.395,-56.763,-315.979
0.257,0.923,-0.408,-22.827,-52.734,-326.233
0.282,1.033,-0.367,-27.893,-48.462,-335.999
0.346,1.223,-0.382,-35.217,-49.438,-343.933
0.317,1.388,-0.378,-44.189,-53.284,-352.295
0.338,1.645,-0.340,-48.157,-50.476,-355.774
0.273,1.771,-0.437,-57.190,-45.471,-373.596
0.232,2.085,-0.591,-55.054,-49.255,-363.525
0.101,2.396,-0.676,-45.471,-53.345,-350.037
-0.083,2.364,-0.699,-43.152,-65.613,-339.966
-0.370,2.412,-0.584,-45.044,-70.618,-330.444
-0.625,2.499,-0.521,-50.110,-73.975,-323.914
-0.796,2.574,-0.518,-52.917,-79.407,-315.674
-0.875,2.493,-0.620,-54.565,-82.703,-297.058
-0.823,2.495,-0.573,-58.960,-93.262,-274.902
-0.946,2.479,-0.674,-56.091,-107.422,-246.033
-1.200,2.249,-0.717,-52.429,-114.502,-215.820
-1.545,2.061,-0.764,-48.218,-107.849,-188.599
-2.210,2.059,-0.656,-38.330,-80.078,-154.236
-2.634,1.786,-0.400,-21.667,-31.006,-102.722
-2.268,1.293,-0.255,-10.315,5.615,-37.964
-1.531,1.118,-0.243,-8.667,15.198,25.452
-0.898,1.284,-0.433,-5.981,0.977,80.750
-0.748,1.331,-0.543,-6.348,-24.963,114.685
-0.829,1.311,-0.382,-9.521,-49.072,136.108
-0.957,1.259,-0.347,-14.465,-69.397,156.067
-1.071,1.356,-0.236,-17.944,-81.055,172.791
-1.053,1.357,-0.367,-18.555,-81.116,180.847
0.790,1.220,-0.564,-8.606,-82.642,152.161
2.398,0.954,-0.311,0.732,-74.036,111.145
2.371,0.862,-0.140,-3.784,-28.503,95.642
0.373,1.289,0.710,-3.418,-16.296,131.104
-0.621,1.763,0.321,-7.629,-54.626,188.965
-1.216,1.611,-0.867,-34.668,-81.848,214.722
-0.127,2.235,-0.218,-28.076,-77.637,188.965
0.008,1.528,-0.689,-37.537,-67.505,169.434
-0.110,1.354,-0.127,-37.964,-38.086,165.283
-0.374,1.349,-0.047,-29.724,-2.625,166.504
-0.355,1.007,-0.123,-19.287,9.644,157.104
0.207,0.546,-0.547,-28.137,4.883,134.277
-0.724,0.425,-1.103,-51.941,7.996,126.831
-0.752,1.156,-0.856,-48.889,11.719,119.873
-0.382,1.434,-0.551,-31.311,28.259,100.342
0.191,1.197,-0.399,-21.973,37.781,83.740
-0.050,0.985,-0.720,-25.452,42.786,83.435
0.282,1.268,-0.343,-7.385,53.833,78.674
-0.237,1.046,-0.528,-2.319,61.218,73.914
0.330,1.084,-0.086,5.798,68.115,59.814
-0.829,0.925,-0.664,-9.766,73.120,59.998
1.055,1.223,-0.077,13.733,74.402,35.400
-1.174,0.755,-0.581,-15.076,68.665,48.706
1.321,1.344,-0.080,15.076,57.434,29.480
-0.990,0.682,-0.603,-11.475,49.988,37.292
1.041,0.968,-0.238,11.292,39.124,18.188
-0.282,0.836,-0.363,-6.226,34.302,20.630
0.388,0.778,-0.401,2.136,28.503,12.024
0.079,0.927,-0.345,-3.662,26.001,10.681
0.065,0.870,-0.371,-2.747,25.146,10.925
-0.096,0.901,-0.389,-1.404,24.292,10.742
0.466,0.868,-0.298,0.488,28.076,6.104
-0.462,0.843,-0.497,-7.446,26.062,20.264
0.378,0.952,-0.312,2.991,31.738,12.878
-0.012,0.799,-0.347,-4.211,26.855,22.705
0.033,0.870,-0.390,-0.488,31.189,24.048
0.182,0.807,-0.389,-4.150,29.663,25.391
0.270,0.946,-0.346,-0.854,33.508,25.452
0.116,0.708,-0.410,-6.287,33.691,28.931
0.320,1.142,-0.320,0.793,35.156,28.381
-0.117,0.673,-0.429,-10.071,30.579,35.767
-0.079,1.345,-0.249,4.944,29.785,35.950
0.403,0.479,-0.317,-8.667,30.640,32.166
-0.511,1.442,-0.466,-3.235,19.165,46.326
0.041,0.401,-0.331,-11.169,25.391,35.339
0.055,1.602,-0.301,-0.610,19.043,43.579
0.043,0.441,-0.581,-12.390,25.818,34.424
0.116,1.244,-0.360,-3.113,22.766,41.565
0.153,0.861,-0.502,-8.057,28.198,38.757
0.026,0.956,-0.407,-6.042,28.259,48.584
0.049,0.879,-0.453,-6.165,31.067,54.016
0.453,0.982,-0.266,-1.892,33.325,60.303
-0.379,0.848,-0.653,-7.812,25.818,77.637
0.403,1.172,-0.273,2.075,28.198,80.811
0.055,1.096,-0.554,-2.136,25.513,93.323
-0.120,1.287,-0.382,3.357,26.917,98.267
0.155,1.104,-0.391,1.465,26.001,104.065
0.193,1.355,-0.311,6.470,26.245,104.187
-0.053,1.107,-0.534,0.671,24.353,112.305
0.255,1.466,-0.246,8.362,28.748,112.488
-0.320,1.273,-0.737,1.221,25.757,126.587
0.164,1.677,-0.297,16.907,38.757,123.718
0.106,1.103,-0.946,5.188,38.086,137.939
0.006,1.958,-0.270,17.517,48.340,142.761
-0.303,1.274,-1.021,9.399,58.838,154.236
0.378,1.620,-0.284,21.545,72.021,156.494
0.356,1.677,-0.675,17.151,82.092,167.053
0.445,1.633,-0.496,19.897,92.102,168.640
0.493,1.811,-0.672,18.799,101.929,172.119
0.727,2.049,-0.755,22.095,110.229,181.641
1.145,2.183,-0.937,26.001,114.502,197.754
1.060,2.019,-0.887,23.621,117.920,206.848
0.620,2.044,-0.700,14.648,125.610,212.646
0.523,1.805,-0.603,5.493,132.507,210.449
0.310,1.982,-0.522,-0.549,130.432,208.374
0.182,1.971,-0.553,3.357,123.474,203.491
0.104,1.823,-0.804,5.798,111.206,196.167
0.447,1.666,-0.901,12.207,103.516,178.772
1.053,1.392,-0.741,16.724,94.666,155.884
1.174,1.063,-0.648,16.052,76.782,135.986
0.788,0.762,-0.399,10.620,71.777,117.249
0.059,0.515,-0.246,3.174,71.655,104.614
-0.757,0.343,-0.341,-2.686,61.707,94.543
0.178,0.340,-0.370,1.831,37.292,62.866
0.672,0.354,-0.186,3.967,4.456,32.104
0.736,0.584,0.054,1.770,-17.822,11.414
-0.340,0.662,-0.438,-12.573,-19.958,11.597
0.216,0.683,-0.223,-1.221,-20.508,-10.864
0.561,0.293,-0.133,9.155,-20.630,-44.250
0.640,0.037,-0.099,12.390,-17.822,-70.618
0.625,0.021,-0.102,12.268,-18.677,-92.468
0.514,0.074,-0.122,9.949,-26.733,-112.122
0.411,0.169,-0.150,6.897,-36.255,-128.784
0.290,0.250,-0.172,5.554,-43.274,-148.865
0.174,0.297,-0.221,4.272,-46.692,-168.091
0.057,0.360,-0.242,3.906,-46.265,-185.669
0.021,0.396,-0.237,3.845,-43.945,-201.111
0.060,0.442,-0.236,3.479,-43.701,-214.600
0.106,0.477,-0.227,2.869,-46.204,-227.356
0.116,0.490,-0.235,1.404,-47.424,-239.380
0.126,0.510,-0.240,-0.671,-48.401,-250.916
0.168,0.545,-0.259,-3.357,-50.598,-261.902
0.206,0.590,-0.260,-6.714,-52.795,-272.583
0.227,0.651,-0.276,-10.559,-54.688,-282.898
0.277,0.710,-0.299,-15.686,-58.167,-292.358
0.295,0.782,-0.341,-22.217,-62.195,-301.147
0.281,0.902,-0.384,-27.039,-61.462,-310.852
0.320,0.975,-0.386,-32.227,-61.340,-321.716
0.371,1.151,-0.401,-38.208,-63.171,-328.857
0.296,1.406,-0.409,-39.612,-62.317,-331.360
0.190,1.555,-0.400,-40.100,-56.274,-334.412
0.058,1.713,-0.440,-40.527,-45.532,-336.487
0.001,1.858,-0.502,-43.396,-38.940,-337.646
0.059,2.068,-0.589,-47.729,-39.673,-338.928
0.063,2.245,-0.642,-51.208,-54.199,-337.830
-0.229,2.346,-0.587,-52.979,-66.345,-335.083
-0.437,2.381,-0.526,-53.894,-75.500,-327.942
-0.646,2.405,-0.496,-55.969,-83.069,-315.979
-0.789,2.433,-0.566,-56.335,-88.074,-300.293
-0.746,2.451,-0.599,-57.556,-93.872,-279.053
-0.748,2.494,-0.658,-53.894,-104.980,-253.113
-1.010,2.297,-0.765,-47.241,-114.258,-220.886
-1.269,1.984,-0.758,-43.091,-105.957,-189.697
-1.892,2.026,-0.755,-37.354,-66.284,-162.964
-2.408,1.776,-0.551,-39.246,-48.157,-139.648
-2.343,1.469,-0.314,-17.517,0.427,-61.951
-1.627,1.156,-0.164,-12.146,15.930,6.409
-1.019,1.224,-0.236,-11.414,-1.282,66.772
-0.840,1.463,-0.340,-8.057,-30.518,112.671
-0.904,1.511,-0.234,-6.287,-55.908,138.000
-1.269,1.454,-0.028,-7.874,-64.941,156.067
-1.320,1.391,-0.095,-8.911,-61.646,169.434
-0.796,1.390,-0.261,-7.202,-51.819,165.833
1.141,1.118,-0.768,-6.897,-51.086,130.066
2.453,1.129,-0.483,2.197,-24.841,101.196
1.555,1.113,0.220,6.226,21.790,97.351
-0.050,1.371,0.543,20.691,12.268,145.569
-0.629,1.388,-0.125,8.057,-36.133,174.988
-0.819,1.509,-0.703,-17.090,-66.162,180.786
0.163,1.938,-0.413,-14.221,-70.190,164.917
-0.234,1.441,-0.785,-23.254,-56.946,156.921
0.528,1.435,-0.078,-11.536,-36.377,145.874
-0.707,0.956,-0.585,-16.663,-10.254,156.189
-0.201,1.033,-0.164,-9.827,-5.737,153.381
-0.002,0.588,-1.035,-23.254,-2.930,138.977
-0.548,0.795,-0.750,-31.677,-8.240,129.150
-0.327,1.299,-0.797,-17.334,8.789,116.882
-0.115,1.225,-0.148,-7.385,38.086,90.088
-0.224,1.111,-0.380,-13.794,63.965,79.163
-0.492,1.185,-0.504,-8.911,79.834,77.209
0.405,1.220,-0.315,2.502,80.627,62.195
-0.694,0.988,-0.399,-8.362,80.322,63.660
0.620,1.135,-0.204,5.859,70.618,49.011
-0.085,0.817,-0.330,-9.888,61.279,43.457
0.328,1.117,-0.313,-2.686,47.729,37.415
0.070,0.902,-0.348,-6.897,42.603,28.748
0.521,1.048,-0.312,1.343,39.063,21.240
-0.226,0.745,-0.426,-5.737,37.781,18.066
0.535,1.036,-0.383,5.981,37.537,8.240
-0.506,0.705,-0.454,-4.211,35.339,14.954
0.354,1.197,-0.334,14.709,36.499,6.470
0.184,0.424,-0.371,-2.625,34.058,5.920
-0.034,1.411,-0.316,8.606,32.227,16.785
-0.021,0.396,-0.508,-0.854,28.503,10.803
0.420,1.391,-0.138,7.446,29.175,18.066
0.225,0.451,-0.410,-0.671,23.987,13.550
0.435,1.047,-0.213,-0.061,22.949,18.555
0.123,0.748,-0.395,-3.601,19.775,18.799
0.211,0.954,-0.355,-3.174,20.752,22.766
0.176,0.897,-0.383,-2.136,21.423,24.231
0.277,0.982,-0.319,-0.305,23.560,24.902
-0.018,0.759,-0.440,-6.775,20.386,30.945
-0.097,1.183,-0.302,0.122,24.475,33.447
0.113,0.773,-0.343,-4.639,24.414,32.227
-0.048,1.044,-0.358,-2.441,26.917,37.598
0.151,0.835,-0.377,-4.578,27.161,36.072
-0.023,1.040,-0.364,-3.967,27.893,38.452
0.470,0.771,-0.328,-4.150,29.114,34.180
-0.097,1.042,-0.365,-5.188,27.527,41.321
0.444,0.689,-0.369,-7.324,26.184,39.978
-0.572,1.159,-0.384,-6.348,22.827,57.739
1.030,0.743,-0.200,-1.221,24.963,45.959
-0.905,1.011,-0.753,-12.756,14.709,75.867
0.825,0.959,-0.232,0.000,23.926,60.364
-0.911,1.426,-0.496,-4.089,22.644,86.304
0.580,0.698,-0.359,7.568,37.170,69.214
-0.213,1.174,-0.484,4.700,36.316,88.074
0.232,0.847,-0.367,7.935,41.443,80.444
0.051,1.135,-0.552,8.972,36.804,93.811

0.021,1.213,-0.284,-12.634,23.071,137.817
-0.335,0.679,-0.749,-33.936,18.860,132.141
0.152,0.905,-0.573,-31.799,15.381,121.521
-0.420,1.008,-0.866,-35.889,16.663,113.525
-0.031,1.246,-0.270,-18.860,28.809,97.229
-0.147,1.119,-0.345,-18.616,46.570,88.806
-0.296,1.122,-0.364,-18.372,58.960,83.618
0.122,1.170,-0.566,-8.850,65.857,72.327
-0.554,0.956,-0.278,-12.573,76.721,69.031
0.081,1.339,-0.447,-2.502,83.862,62.988
0.019,0.850,-0.253,-2.869,84.473,50.415
0.172,1.128,-0.326,-4.028,70.984,53.040
0.425,0.877,-0.332,-2.747,52.551,42.236
0.203,1.059,-0.330,-2.869,43.091,37.292
0.259,0.710,-0.365,-4.822,32.837,28.076
0.239,1.140,-0.343,0.366,29.602,22.583
0.026,0.636,-0.413,-6.104,23.560,18.494
-0.282,1.339,-0.274,2.686,21.423,20.874
0.753,0.552,-0.353,-2.625,18.799,5.737
-0.741,1.310,-0.345,-4.639,22.705,24.292
0.589,0.541,-0.481,-2.014,21.362,8.484
-0.257,1.398,-0.257,-3.662,25.879,23.010
0.410,0.507,-0.442,0.427,24.048,11.475
0.135,1.086,-0.290,-2.136,26.489,19.714
0.231,0.715,-0.368,0.366,25.696,14.526
0.196,0.957,-0.406,-3.418,25.757,20.569
0.171,0.949,-0.408,-1.465,27.039,20.630
0.092,0.994,-0.362,-0.427,29.419,23.254
0.286,0.746,-0.389,-3.662,28.320,24.719
-0.289,1.181,-0.372,-0.549,29.358,31.616
0.140,0.780,-0.292,-1.038,30.762,28.076
-0.133,1.052,-0.373,-0.854,29.785,34.668
0.129,0.828,-0.343,-1.221,31.799,30.396
-0.041,0.943,-0.409,-3.174,31.494,34.119
0.422,0.837,-0.307,-1.465,33.875,28.381
-0.223,0.948,-0.447,-6.165,30.701,34.790
0.496,0.797,-0.291,-4.150,31.433,27.893
-0.660,1.027,-0.483,-9.521,28.137,42.297
0.697,0.948,-0.115,1.465,34.607,28.320
-0.737,0.730,-0.699,-15.137,24.231,54.871
0.716,1.128,-0.159,2.930,32.776,42.664
-0.796,0.968,-0.599,-11.963,27.710,66.956
0.792,0.912,-0.321,3.845,36.682,55.054
-0.208,1.200,-0.471,-3.723,36.133,75.073
0.192,1.028,-0.301,5.066,43.579,70.740
0.108,1.135,-0.445,4.211,41.687,83.801
0.163,1.141,-0.325,8.179,44.128,85.999
0.044,1.208,-0.399,11.108,43.152,95.276
0.279,0.962,-0.422,7.935,40.222,99.976
-0.257,1.522,-0.274,13.123,33.264,114.990
0.285,1.038,-0.316,9.949,30.884,114.868
-0.275,1.426,-0.431,13.611,23.926,127.686
0.266,1.259,-0.295,14.099,25.391,129.700
-0.103,1.505,-0.620,18.738,23.987,136.536
0.444,1.256,-0.490,20.630,33.630,138.000
-0.000,1.707,-0.655,25.635,38.513,145.935
0.081,1.303,-0.670,21.729,51.331,151.978
-0.018,1.900,-0.442,34.119,62.073,155.640
0.793,1.524,-0.507,32.959,76.294,158.813
0.082,2.275,-0.641,40.710,74.158,180.054
0.861,1.768,-0.694,34.790,81.726,190.552
0.832,2.397,-0.694,39.368,77.454,207.336
1.508,2.078,-0.774,33.508,86.548,214.417
1.221,1.952,-0.714,27.771,82.092,228.394
1.120,1.931,-0.478,12.695,77.148,228.333
0.513,2.048,-0.540,5.188,70.251,231.201
0.327,2.061,-0.656,6.775,64.453,223.145
-0.036,1.973,-0.797,14.282,57.007,215.820
0.246,1.635,-0.950,16.724,50.354,204.773
0.638,1.437,-0.854,15.625,48.157,189.941
0.937,1.192,-0.698,15.076,46.631,168.335
0.868,0.927,-0.520,13.916,40.039,143.616
0.515,0.705,-0.283,10.010,36.133,122.314
-0.665,0.415,-0.294,0.977,34.119,111.938
-0.032,0.441,-0.440,2.441,12.146,85.388
0.635,0.438,-0.228,7.568,-15.442,51.208
0.924,0.564,-0.242,13.123,-38.879,23.132
0.197,0.653,-0.057,6.287,-46.265,10.620
-0.206,0.625,-0.512,-1.160,-41.382,3.357
0.261,0.448,-0.205,12.878,-24.353,-33.813
0.525,0.115,-0.150,23.071,-9.155,-68.054
0.594,-0.047,-0.138,24.719,-1.526,-92.224
0.505,0.001,-0.168,21.484,-0.183,-114.624
0.450,0.095,-0.225,17.761,-5.493,-132.568
0.397,0.212,-0.251,13.489,-15.564,-151.611
0.244,0.298,-0.284,11.230,-20.630,-172.668
0.146,0.339,-0.316,9.399,-21.606,-193.054
0.093,0.393,-0.314,8.118,-20.874,-210.693
0.092,0.432,-0.291,6.958,-20.447,-226.440
0.101,0.493,-0.265,6.531,-21.545,-241.455
0.098,0.520,-0.247,5.676,-22.339,-255.920
0.130,0.534,-0.266,3.845,-23.560,-268.433
0.185,0.547,-0.268,0.610,-26.794,-279.541
0.245,0.578,-0.270,-4.456,-31.494,-290.466
0.260,0.633,-0.293,-11.230,-35.400,-300.049
0.264,0.718,-0.326,-18.799,-37.842,-308.655
0.310,0.748,-0.376,-29.907,-39.246,-317.566
0.323,0.907,-0.404,-40.466,-40.039,-326.721
0.357,1.028,-0.408,-49.988,-44.922,-336.670
0.340,1.256,-0.395,-55.969,-48.645,-343.201
0.256,1.427,-0.374,-60.364,-47.363,-351.685
0.235,1.603,-0.355,-60.669,-42.847,-353.271
0.209,1.814,-0.397,-60.059,-40.100,-349.487
0.155,2.026,-0.527,-62.073,-42.053,-348.267
0.099,2.280,-0.626,-64.636,-51.086,-349.792
-0.068,2.450,-0.615,-61.462,-59.753,-348.450
-0.322,2.354,-0.471,-61.584,-66.467,-341.614
-0.490,2.369,-0.406,-62.622,-77.698,-330.261
-0.705,2.447,-0.435,-60.852,-90.271,-313.904
-0.788,2.482,-0.533,-58.289,-100.220,-293.701
-0.742,2.597,-0.510,-56.519,-112.854,-269.409
-0.894,2.603,-0.663,-50.659,-127.197,-241.089
-1.094,2.262,-0.778,-46.326,-137.878,-210.388
-1.463,2.024,-0.788,-44.983,-130.493,-181.396
-2.482,2.056,-0.679,-28.503,-66.101,-142.334
-2.755,1.572,-0.369,-36.743,-37.720,-122.375
-2.396,1.417,-0.173,-13.733,8.118,-35.339
-1.637,1.280,-0.195,-3.418,22.400,34.546
-1.067,1.401,-0.354,0.793,6.653,88.318
-0.888,1.466,-0.419,3.113,-20.569,121.338
-0.815,1.335,-0.504,-1.709,-44.373,145.691
-1.079,1.444,-0.378,-4.944,-53.711,164.978
-0.985,1.310,-0.455,-14.343,-82.886,183.044
-0.358,1.314,-0.532,-9.094,-86.060,179.077
1.641,1.018,-1.096,-14.160,-86.365,136.658
2.297,0.951,-0.626,-18.799,-36.926,87.341
1.400,1.387,0.224,-4.028,9.033,105.225
-0.255,1.413,0.517,2.197,-4.883,153.687
-0.499,1.485,0.152,-4.761,-46.753,178.650
-0.764,1.613,-0.424,-14.648,-63.965,180.481
-0.397,1.672,-0.263,-6.226,-65.613,172.546
0.112,1.216,-0.618,-21.545,-69.519,162.964
-0.091,1.109,-0.183,-30.518,-54.077,149.658
-0.230,1.419,-0.214,-15.015,-9.277,140.442
-0.508,1.021,0.006,-14.832,14.954,129.761
0.197,0.906,-0.334,-16.907,29.663,116.272
-0.712,0.738,-0.756,-28.687,35.767,119.263
0.548,1.028,-0.823,-24.719,29.236,102.417
-1.353,0.836,-0.911,-45.593,41.626,106.140
0.326,1.712,-0.531,-14.954,50.293,96.802
-0.738,0.983,-0.821,-18.555,62.805,86.365
0.610,1.292,-0.119,5.615,69.702,71.716
-0.285,0.925,-0.407,-3.662,72.449,70.740
0.321,1.065,-0.127,7.446,71.960,59.265
0.096,0.954,-0.297,-4.944,68.481,52.856
0.337,1.087,-0.259,-2.869,57.495,48.584
0.144,1.065,-0.359,-4.578,47.485,43.396
0.312,0.833,-0.325,-7.202,33.325,38.269
-0.127,1.214,-0.348,-3.601,28.137,36.865
0.141,0.637,-0.441,-2.625,21.057,24.719
-0.133,1.010,-0.351,-0.977,17.578,28.076
0.132,0.812,-0.466,0.671,15.747,18.127
-0.019,0.973,-0.382,-0.305,18.372,17.639
0.556,0.788,-0.366,1.099,20.020,8.850
-0.165,0.969,-0.401,-4.150,24.597,13.672
0.525,0.822,-0.310,-0.488,26.184,7.446
-0.464,1.054,-0.395,-5.432,28.381,21.057
0.753,0.976,-0.149,8.423,30.518,8.423
-0.482,0.604,-0.609,-14.221,25.208,27.405
0.516,1.269,-0.220,7.996,26.611,18.616
-0.582,0.651,-0.649,-14.282,24.597,32.349
0.610,1.038,-0.274,9.094,29.175,22.095
-0.046,0.668,-0.542,-9.094,31.250,28.931
0.159,0.903,-0.368,2.808,34.912,24.841
0.144,0.846,-0.433,-5.127,36.499,28.564
0.133,0.954,-0.378,-1.892,35.583,27.832
-0.044,0.909,-0.437,-4.456,36.133,30.579
0.328,0.923,-0.268,-3.052,36.560,26.978
-0.479,0.928,-0.502,-8.911,33.264,37.781
0.183,0.917,-0.210,-2.502,33.691,33.020
-0.008,0.916,-0.312,-7.507,29.541,42.908
0.004,0.941,-0.288,-4.028,31.189,43.152
0.029,0.869,-0.409,-8.728,30.945,51.025
0.374,1.074,-0.307,-3.052,34.973,50.110
-0.018,0.790,-0.554,-8.789,34.851,62.073
0.480,1.065,-0.316,-1.404,38.696,63.049
-0.372,0.843,-0.629,-9.583,33.936,81.726
0.375,1.328,-0.187,7.263,39.185,75.989
-0.221,0.736,-0.774,-8.362,34.546,89.233
0.178,1.790,-0.055,15.930,39.734,90.820
-0.598,0.770,-0.777,-1.099,33.325,102.417
0.585,1.393,-0.044,21.484,36.316,101.074
-0.024,1.046,-0.645,7.202,29.419,111.694
0.113,1.116,-0.251,16.479,27.771,113.098
0.128,1.271,-0.573,10.986,23.499,119.995
0.016,1.380,-0.422,15.137,24.353,123.901
-0.086,1.478,-0.700,18.921,28.198,127.930
0.447,1.311,-0.568,22.156,37.781,131.287
-0.526,1.725,-0.785,22.644,42.175,143.799
0.372,1.350,-0.475,26.367,58.350,146.179
-0.046,1.719,-0.542,30.823,66.162,156.982
0.561,1.610,-0.424,32.654,83.069,161.377
0.425,1.890,-0.548,36.255,89.783,175.110
1.108,1.919,-0.456,36.621,99.731,182.556
0.788,2.211,-0.700,33.508,91.675,201.782
1.366,2.062,-0.687,26.428,90.210,211.670
0.783,2.061,-0.703,17.151,89.355,226.868
1.220,1.850,-0.457,7.141,92.773,221.375
0.366,2.017,-0.529,-1.465,84.717,229.248
0.341,1.892,-0.621,2.380,84.839,221.375
-0.019,1.938,-0.822,1.709,65.369,218.323
0.004,1.744,-0.936,8.545,58.228,210.327
0.686,1.462,-0.872,8.789,59.998,192.566
0.921,1.240,-0.694,8.179,60.547,168.884
0.862,0.881,-0.485,5.859,62.317,143.555
0.458,0.649,-0.315,2.441,61.218,119.507
-0.697,0.377,-0.401,-4.761,63.171,107.056
0.034,0.418,-0.449,0.916,45.227,78.308
0.610,0.364,-0.284,5.127,20.935,42.297
0.972,0.588,-0.175,9.216,0.793,15.747
0.022,0.615,-0.312,-2.380,-8.545,8.057
0.082,0.687,-0.468,-2.319,-10.620,-3.845
0.460,0.447,-0.180,13.367,-1.587,-39.612
0.661,0.132,-0.134,22.339,5.615,-69.275
0.680,0.014,-0.096,22.949,8.057,-96.313
0.562,0.068,-0.157,18.860,3.845,-118.408
0.510,0.166,-0.199,15.259,-6.165,-136.292
0.417,0.291,-0.209,13.000,-18.738,-156.128
0.242,0.375,-0.235,11.414,-26.550,-176.880
0.138,0.432,-0.268,10.620,-31.738,-196.655
0.093,0.500,-0.264,10.559,-35.461,-214.539
0.059,0.530,-0.295,9.705,-38.391,-229.370
0.047,0.577,-0.292,10.132,-37.170,-241.272
0.113,0.595,-0.246,9.399,-37.048,-251.526
0.159,0.612,-0.232,5.188,-40.222,-260.803
0.172,0.649,-0.265,0.000,-44.800,-269.043
0.206,0.688,-0.310,-5.615,-51.331,-277.649
0.230,0.719,-0.318,-12.573,-57.007,-286.926
0.225,0.770,-0.335,-19.897,-59.570,-295.715
0.222,0.870,-0.368,-25.940,-59.509,-304.138
0.254,0.954,-0.388,-32.837,-61.401,-311.951
0.268,1.106,-0.416,-40.527,-68.115,-317.383
0.175,1.274,-0.421,-46.448,-74.707,-322.754
0.102,1.369,-0.409,-53.284,-78.186,-329.712
0.061,1.575,-0.452,-52.612,-74.280,-331.970
-0.033,1.678,-0.513,-52.673,-65.247,-336.975
-0.096,1.882,-0.579,-52.307,-60.486,-339.844
-0.162,2.040,-0.624,-50.537,-59.631,-339.478

-0.004,1.532,-0.686,30.823,67.993,153.076
0.727,1.635,-0.218,38.147,79.102,151.672
0.120,1.708,-0.692,34.729,79.895,161.621
0.839,1.766,-0.336,40.649,87.585,166.565
0.151,2.056,-0.813,35.645,86.670,183.289
1.105,2.141,-0.466,41.260,97.900,186.890
0.697,2.154,-0.960,32.959,95.215,207.764
1.417,1.897,-0.608,29.968,98.572,215.088
1.010,1.958,-0.635,14.282,83.984,224.426
0.868,1.850,-0.577,7.935,79.895,220.459
0.613,1.978,-0.708,7.690,68.054,219.238
0.144,1.852,-0.736,12.329,53.833,216.675
0.309,1.689,-0.908,13.794,36.255,205.688
0.588,1.501,-0.829,15.381,26.550,191.833
0.696,1.228,-0.763,14.160,29.724,172.791
0.761,0.977,-0.633,15.015,32.227,151.001
0.559,0.839,-0.224,14.038,33.813,129.456
-0.755,0.567,-0.362,6.775,39.795,119.934
-0.336,0.526,-0.570,10.986,29.175,94.482
0.352,0.495,-0.337,16.357,12.207,55.359
0.631,0.521,-0.287,19.836,-3.479,24.963
0.489,0.659,-0.021,19.104,-10.986,7.996
-0.198,0.530,-0.478,7.812,-10.986,4.578
0.192,0.412,-0.239,16.113,-4.211,-22.949
0.434,0.090,-0.139,24.658,3.906,-57.129
0.507,-0.086,-0.100,26.672,9.583,-84.106
0.495,-0.092,-0.123,22.827,8.728,-107.544
0.455,-0.010,-0.174,17.700,0.000,-126.526
0.370,0.073,-0.191,12.329,-8.728,-143.555
0.270,0.182,-0.203,9.583,-14.526,-162.170
0.185,0.238,-0.225,7.446,-19.653,-181.274
0.135,0.285,-0.236,5.859,-24.109,-197.815
0.120,0.333,-0.227,4.211,-27.649,-212.036
0.128,0.403,-0.217,2.991,-33.203,-224.243
0.123,0.465,-0.206,1.343,-38.635,-235.657
0.129,0.516,-0.212,-0.488,-43.579,-246.582
0.170,0.569,-0.228,-3.052,-50.415,-257.629
0.204,0.617,-0.252,-5.859,-58.960,-269.287
0.213,0.659,-0.274,-9.460,-66.589,-279.785
0.236,0.715,-0.301,-13.794,-72.266,-289.734
0.218,0.809,-0.322,-19.470,-75.745,-299.683
0.176,0.861,-0.394,-26.367,-73.669,-309.265
0.222,0.915,-0.424,-33.936,-66.406,-320.862
0.352,1.087,-0.421,-38.879,-64.941,-329.956
0.338,1.266,-0.467,-41.016,-67.078,-333.252
0.217,1.485,-0.460,-39.612,-59.814,-334.351
0.116,1.631,-0.499,-38.757,-48.767,-337.952
-0.052,1.809,-0.588,-37.598,-35.522,-342.529
-0.096,1.976,-0.671,-41.443,-29.419,-348.206
-0.006,2.235,-0.829,-47.302,-37.292,-350.342
-0.303,2.423,-0.735,-49.438,-42.786,-347.900
-0.644,2.365,-0.639,-47.424,-39.673,-342.224
-0.766,2.160,-0.531,-50.354,-35.645,-331.543
-0.754,2.053,-0.522,-59.753,-39.551,-314.758
-0.645,2.300,-0.579,-65.979,-55.542,-297.546
-0.746,2.513,-0.679,-64.087,-74.463,-275.818
-0.920,2.486,-0.650,-57.190,-86.670,-247.681
-1.083,2.297,-0.580,-45.898,-85.754,-218.506
-1.412,2.012,-0.512,-43.213,-88.745,-188.660
-1.811,1.937,-0.547,-28.442,-80.566,-139.404
-2.211,1.649,-0.375,-17.578,-48.828,-88.501
-2.183,1.406,-0.287,-14.282,-10.925,-41.077
-1.549,1.240,-0.170,-17.395,-11.963,20.752
-1.100,1.392,-0.230,-10.071,-17.456,79.346
-1.010,1.478,-0.230,-5.676,-29.968,112.976
-0.964,1.473,-0.278,-4.883,-47.058,134.399
-1.074,1.435,-0.238,-4.333,-57.068,153.687
-1.015,1.379,-0.235,-3.479,-58.105,169.861
-0.635,1.210,-0.483,-3.113,-56.396,165.100
1.609,1.068,-0.902,-2.014,-73.853,131.287
2.526,0.899,-0.667,-5.676,-44.678,92.957
1.326,1.154,0.368,-1.892,-1.221,96.985
0.067,1.325,0.562,7.385,-18.738,144.104
-0.380,1.273,-0.152,-5.127,-64.575,179.016
-0.556,1.575,-0.368,-24.048,-87.036,189.270
-0.023,1.948,-0.349,-18.250,-80.750,172.302
-0.473,1.453,-0.624,-27.710,-65.796,167.908
0.047,1.336,-0.400,-27.649,-46.265,156.982
-0.387,1.122,-0.183,-25.757,-26.062,151.733
-0.203,0.963,-0.456,-25.024,-5.249,152.954
-0.293,0.654,-0.810,-43.152,-10.742,143.250
-0.212,1.008,-0.830,-39.185,3.601,127.380
-0.298,1.203,-0.601,-22.400,28.381,109.924
-0.353,1.030,-0.067,-15.686,50.903,99.670
-0.594,1.130,-0.832,-23.010,71.655,94.666
0.307,1.222,-0.159,-0.977,77.759,79.102
-0.671,1.150,-0.783,-8.667,84.534,79.468
0.140,1.036,-0.036,7.507,76.660,67.871
0.158,1.226,-0.469,-0.977,75.256,60.425
0.348,0.627,-0.146,-1.648,60.425,47.241
0.306,1.212,-0.285,-9.094,54.871,47.852
0.345,0.794,-0.400,-6.653,42.419,35.034
0.121,1.072,-0.348,-7.996,37.415,33.875
0.056,0.873,-0.399,-4.211,27.893,29.114
0.300,1.011,-0.418,2.930,27.771,20.630
-0.432,0.677,-0.516,-5.737,25.391,23.071
0.212,1.148,-0.381,6.165,26.367,13.977
-0.040,0.701,-0.388,-0.671,28.687,12.268
-0.110,0.987,-0.374,3.906,32.349,14.648
0.125,0.811,-0.418,1.038,34.058,7.568
0.137,0.990,-0.276,3.296,37.537,9.827
0.415,0.742,-0.311,1.709,37.415,5.493
0.016,1.020,-0.260,1.770,37.781,11.658
0.345,0.674,-0.358,-1.526,35.156,9.216
-0.365,1.161,-0.300,-0.366,30.029,23.071
0.875,0.696,-0.303,2.136,35.095,6.592
-0.846,1.014,-0.577,-9.460,22.766,32.532
0.643,0.858,-0.273,5.127,33.630,17.334
-0.494,1.194,-0.421,-4.333,23.437,34.363
0.572,0.599,-0.379,3.174,34.485,21.301
0.022,1.134,-0.373,-2.747,29.541,33.875
0.166,0.777,-0.376,-0.183,33.691,28.320
0.093,1.020,-0.360,-2.197,31.860,32.837
0.174,0.959,-0.339,-0.488,30.701,34.180
0.178,1.031,-0.309,1.953,27.466,38.208
0.078,0.675,-0.469,-6.348,22.766,45.044
-0.052,1.257,-0.307,1.099,20.203,53.650
0.270,0.665,-0.417,-3.235,21.362,57.739
-0.026,1.049,-0.464,-1.221,17.517,70.007
0.234,0.871,-0.467,-1.404,19.348,73.547
-0.053,1.139,-0.502,0.977,21.851,79.590
0.361,0.928,-0.444,2.136,29.297,76.965
-0.169,1.286,-0.412,5.554,32.532,82.458
0.189,0.833,-0.469,2.869,36.926,83.435
-0.502,1.420,-0.399,9.155,36.255,93.384
0.975,0.871,-0.228,7.690,42.969,86.426
-1.138,1.478,-0.651,5.676,27.527,110.046
0.735,0.793,-0.125,4.700,36.316,102.600
-0.366,1.827,-0.352,12.146,20.508,119.751
0.485,1.017,-0.312,6.653,26.550,116.089
-0.168,1.500,-0.572,12.207,18.372,125.366
0.278,1.362,-0.434,11.047,28.320,126.953
-0.212,1.463,-0.765,15.259,31.006,132.812
0.074,1.395,-0.602,16.052,43.518,136.719
0.295,1.549,-0.516,21.912,52.612,139.465
-0.227,1.472,-0.733,17.456,57.861,152.710
0.342,1.639,-0.386,24.597,70.435,153.748
0.227,1.786,-0.599,26.184,76.843,160.461
0.353,1.923,-0.493,32.288,88.562,167.480
0.609,2.010,-0.637,32.837,92.285,182.007
0.990,2.215,-0.645,35.889,97.290,192.749
1.143,2.020,-0.770,33.508,103.943,203.735
1.156,1.831,-0.538,25.757,108.948,205.872
0.766,1.773,-0.534,7.507,102.966,207.520
0.379,1.971,-0.522,7.629,100.891,203.979
0.428,1.847,-0.681,5.981,89.417,198.181
-0.198,1.889,-0.818,13.367,75.806,199.036
0.355,1.526,-0.852,18.250,73.242,184.631
0.812,1.349,-0.852,18.372,59.509,171.875
1.083,1.019,-0.717,18.250,45.654,152.344
0.819,0.768,-0.370,13.977,39.551,129.700
0.003,0.492,-0.255,3.723,41.016,114.868
-0.822,0.372,-0.403,-2.625,37.903,103.638
0.092,0.375,-0.391,1.343,17.822,69.153
0.375,0.406,-0.253,3.174,-2.014,36.987
0.714,0.607,-0.186,7.202,-16.541,12.329
-0.055,0.638,-0.218,-0.793,-18.127,3.967
-0.016,0.626,-0.382,-1.038,-14.038,-7.874
0.343,0.370,-0.188,10.071,-5.554,-39.551
0.526,0.066,-0.136,15.991,0.183,-68.237
0.559,-0.052,-0.110,15.869,2.136,-91.370
0.448,-0.021,-0.158,12.207,-1.282,-110.901
0.406,0.052,-0.213,7.141,-10.193,-127.625
0.342,0.181,-0.220,3.845,-19.653,-146.484
0.196,0.260,-0.248,2.441,-24.902,-165.710
0.100,0.331,-0.265,2.075,-24.963,-183.899
0.087,0.375,-0.267,1.099,-24.231,-199.890
0.087,0.439,-0.246,0.488,-24.109,-213.013
0.109,0.477,-0.249,-0.305,-25.696,-225.403
0.132,0.485,-0.251,-2.319,-28.137,-237.854
0.149,0.499,-0.263,-5.676,-30.884,-249.695
0.182,0.531,-0.279,-9.888,-34.546,-260.193
0.202,0.590,-0.283,-14.832,-38.147,-270.813
0.231,0.655,-0.281,-20.142,-41.443,-280.884
0.267,0.717,-0.310,-27.588,-45.715,-289.978
0.262,0.831,-0.345,-34.058,-47.363,-298.645
0.243,0.932,-0.370,-39.368,-45.105,-308.105
0.306,1.012,-0.372,-45.776,-44.312,-316.711
0.304,1.197,-0.379,-51.086,-45.410,-322.571
0.213,1.390,-0.366,-52.124,-41.138,-327.881
0.180,1.495,-0.397,-53.467,-32.776,-333.008
0.164,1.618,-0.421,-55.115,-24.170,-337.646
0.172,1.736,-0.477,-58.289,-20.508,-340.515
0.209,1.914,-0.555,-64.453,-27.100,-342.529
0.176,2.159,-0.638,-69.214,-42.786,-342.346
-0.051,2.329,-0.614,-68.237,-53.101,-341.614
-0.260,2.418,-0.475,-64.453,-58.594,-335.999
-0.569,2.456,-0.369,-61.401,-64.514,-323.181
-0.795,2.462,-0.373,-57.434,-68.542,-306.885
-0.843,2.459,-0.433,-54.504,-69.275,-287.842
-0.728,2.435,-0.393,-53.406,-77.271,-263.306
-0.768,2.360,-0.523,-47.485,-92.834,-236.206
-0.776,2.040,-0.667,-39.734,-93.323,-204.163
-1.312,1.926,-0.729,-44.739,-85.571,-182.800
-1.973,1.912,-0.619,-48.767,-83.801,-156.982
-2.536,1.770,-0.390,-25.024,-35.339,-91.858
-2.279,1.369,-0.051,-13.245,-1.587,-27.283
-1.643,1.174,-0.026,-5.066,5.615,36.865
-1.106,1.369,-0.245,-0.610,-6.653,88.013
-0.870,1.422,-0.385,-2.014,-31.677,118.652
-0.861,1.296,-0.381,-7.935,-49.316,136.841
-0.962,1.284,-0.287,-12.146,-57.129,154.358
-0.659,1.254,-0.398,-13.367,-76.904,171.631
0.606,1.229,-0.473,-7.996,-85.632,150.330
2.160,0.832,-0.807,-11.169,-89.172,111.755
2.471,0.745,-0.680,-16.357,-46.631,78.430
0.513,1.385,0.469,1.465,-13.062,114.746
-0.644,1.734,0.384,9.888,-46.204,172.302
-0.682,1.329,-0.256,-5.066,-89.417,193.604
-0.001,1.840,0.026,-13.672,-96.008,189.636
-0.165,1.727,-0.373,-18.616,-87.280,181.763
0.119,1.348,-0.380,-21.484,-76.660,172.058
-0.281,1.132,-0.480,-28.809,-48.279,165.588
-0.605,1.294,0.029,-18.188,-17.334,157.288
-0.134,1.041,-0.294,-18.677,-3.235,148.315
-0.551,0.714,-0.810,-40.955,-5.920,142.090
-0.421,0.903,-0.926,-44.495,-7.141,132.568
-0.578,1.245,-0.682,-34.180,14.465,114.014
-0.193,1.443,-0.203,-13.794,44.312,98.816
-0.285,1.069,-0.505,-15.320,59.753,89.661
0.478,1.160,-0.481,-6.165,57.983,75.562
-0.059,1.010,-0.603,-5.798,55.603,71.533
0.323,1.075,-0.148,2.869,51.819,66.467
-0.686,0.908,-0.731,-9.766,53.894,67.139
1.117,1.127,-0.133,12.146,54.199,46.448
-1.094,0.692,-0.689,-16.785,53.040,58.472
1.120,1.383,-0.064,13.489,43.152,43.518
-0.795,0.667,-0.777,-7.507,43.518,46.204
0.901,1.001,-0.165,20.447,39.917,30.090
-0.157,0.798,-0.450,4.456,38.269,30.212
0.402,0.730,-0.307,12.451,32.043,22.949
0.027,0.909,-0.353,3.113,30.701,22.095
0.215,0.871,-0.337,4.578,27.466,20.752
0.097,0.895,-0.326,2.441,26.917,18.494
0.344,0.820,-0.226,0.793,26.306,18.982
-0.321,1.090,-0.363,-1.221,22.827,29.175
0.307,0.754,-0.285,4.211,23.010,21.851
-0.061,0.939,-0.282,-0.916,19.653,31.250

-1.233,2.501,-0.654,-52.124,-70.435,-300.171
-1.146,2.304,-0.599,-55.237,-66.406,-273.865
-0.992,2.296,-0.642,-53.223,-75.623,-245.361
-1.101,2.113,-0.860,-45.715,-82.458,-214.355
-1.440,2.038,-0.784,-42.358,-73.669,-194.336
-2.046,2.087,-0.690,-33.264,-52.490,-155.884
-2.573,1.765,-0.331,-13.306,0.916,-104.126
-2.182,1.140,-0.128,-10.803,32.776,-50.537
-1.458,1.092,-0.277,-4.639,37.109,23.193
-0.825,1.207,-0.402,-5.249,24.597,78.735
-0.611,1.386,-0.385,-7.141,-6.775,114.441
-0.788,1.366,-0.273,-11.169,-32.043,135.681
-0.915,1.322,-0.222,-15.869,-45.532,154.663
-0.997,1.433,-0.193,-17.334,-45.959,162.537
-0.422,1.553,-0.127,-7.751,-47.974,164.551
0.921,1.123,-0.453,-0.305,-53.162,142.639
2.131,0.889,-0.673,-8.606,-51.575,104.980
2.071,1.015,-0.236,-12.573,-12.207,86.792
0.354,1.420,0.418,-2.808,-0.427,123.962
-0.396,1.569,0.229,-1.282,-37.109,165.161
-0.305,1.538,-0.180,-14.221,-65.979,178.406
-0.446,1.866,-0.235,-14.221,-68.054,172.363
0.005,1.618,-0.341,-14.709,-67.322,162.842
-0.329,1.133,-0.783,-33.081,-59.631,161.987
-0.173,1.464,-0.170,-17.334,-31.799,154.968
-0.531,1.098,-0.330,-12.817,4.578,143.311
-0.016,0.856,-0.316,-15.991,8.545,134.521
-0.030,0.607,-0.885,-26.001,22.888,122.681
-0.279,0.695,-0.775,-34.729,24.170,111.267
0.003,1.081,-0.953,-27.283,31.799,103.027
-0.588,1.228,-0.327,-16.541,53.223,96.863
0.161,1.426,-0.575,-0.854,69.458,87.769
-0.583,0.849,-0.242,-10.559,73.242,82.764
0.383,1.685,-0.366,5.066,71.472,78.674
-0.885,0.604,-0.340,-5.432,63.721,69.458
0.875,1.516,-0.010,9.583,66.345,55.359
-0.314,0.586,-0.297,-12.634,58.594,48.462
0.587,1.244,-0.235,-1.709,48.889,41.382
0.134,0.873,-0.362,-10.071,41.443,35.278
0.242,1.112,-0.308,-3.662,35.645,33.203
-0.192,0.865,-0.434,-6.287,34.119,22.461
0.452,0.866,-0.360,-2.197,32.227,14.099
-0.589,1.055,-0.485,-4.150,31.250,18.860
0.326,0.825,-0.465,5.493,32.288,5.920
-0.090,0.946,-0.385,-0.610,32.471,11.536
0.116,0.890,-0.444,5.371,31.616,5.432
0.084,0.810,-0.397,0.000,32.715,7.690
0.493,0.989,-0.247,7.019,34.302,3.235
-0.046,0.715,-0.460,-2.625,33.264,9.949
0.533,1.026,-0.324,5.737,35.461,5.371
-0.308,0.720,-0.560,-6.836,31.067,19.226
0.399,1.182,-0.246,11.963,36.316,11.353
0.190,0.356,-0.590,-10.376,29.785,22.034
-0.080,1.513,-0.210,9.583,34.424,24.414
-0.247,0.302,-0.577,-9.460,31.799,29.358
0.409,1.385,-0.141,11.047,36.926,27.649
0.117,0.460,-0.427,-6.836,31.616,31.250
0.273,1.073,-0.347,2.686,28.198,31.921
0.126,0.774,-0.358,-6.531,25.757,31.494
0.114,0.968,-0.368,-3.723,21.362,31.311
-0.068,0.851,-0.420,-6.714,21.301,32.898
0.274,0.936,-0.233,-3.601,22.034,30.212
-0.411,0.744,-0.552,-10.376,18.494,43.152
0.193,0.987,-0.263,-0.549,25.574,40.955
0.064,0.787,-0.437,-6.897,25.879,53.162
0.063,0.936,-0.366,-1.953,29.297,59.143
0.292,0.818,-0.527,-6.531,27.344,68.054
0.280,1.140,-0.395,-1.831,29.541,70.129
0.110,0.881,-0.573,-6.470,31.738,73.547
0.125,1.350,-0.275,3.479,40.039,73.975
-0.210,0.908,-0.573,-4.089,40.466,82.275
-0.095,1.509,-0.121,13.489,46.448,84.534
0.498,0.687,-0.625,-1.953,42.969,85.388
-0.526,1.989,-0.042,17.090,42.236,101.257
0.016,0.563,-0.775,-0.183,41.626,99.304
0.121,1.911,0.071,25.024,41.504,109.680
0.254,0.931,-0.709,9.338,43.579,111.572
-0.023,1.511,-0.315,23.193,41.626,120.911
0.186,1.349,-0.610,20.386,46.326,124.329
-0.094,1.484,-0.561,28.625,47.363,131.287
0.036,1.423,-0.666,31.372,53.528,134.644
0.437,1.500,-0.436,37.292,59.631,135.620
-0.520,1.513,-0.910,32.227,60.913,148.865
0.459,1.654,-0.265,44.495,78.369,149.536
0.362,1.765,-0.664,44.434,83.557,160.706
0.658,1.907,-0.341,48.523,90.149,173.279
0.653,1.921,-0.542,43.213,85.327,188.171
1.031,2.045,-0.562,42.358,86.121,199.036
1.256,1.830,-0.616,32.959,83.374,214.233
1.399,1.834,-0.523,24.353,75.195,219.604
0.805,1.954,-0.584,9.827,66.223,227.112
0.789,2.073,-0.682,13.367,64.941,223.755
0.724,1.921,-0.711,12.268,51.758,222.595
0.127,1.835,-0.760,17.456,38.696,221.619
0.291,1.498,-0.885,12.878,21.851,212.341
0.456,1.390,-0.938,12.024,6.897,198.730
0.709,1.146,-0.756,12.939,13.489,175.476
0.842,0.950,-0.598,15.198,16.357,152.771
0.701,0.711,-0.243,14.954,19.409,129.333
-0.752,0.465,-0.255,5.920,26.062,117.065
-0.430,0.519,-0.526,13.123,17.395,90.576
0.278,0.492,-0.288,21.484,-0.366,51.086
0.696,0.617,-0.213,28.564,-20.081,21.729
0.122,0.603,-0.172,18.127,-30.701,12.817
-0.082,0.633,-0.581,10.803,-33.386,6.409
0.332,0.456,-0.251,24.353,-25.818,-27.832
0.505,0.131,-0.199,33.569,-18.677,-60.974
0.522,-0.034,-0.146,34.912,-10.864,-88.257
0.486,-0.012,-0.192,30.090,-10.803,-110.535
0.465,0.090,-0.252,25.452,-21.362,-128.296
0.376,0.187,-0.285,21.729,-30.151,-145.447
0.238,0.277,-0.301,21.118,-36.011,-167.114
0.126,0.333,-0.322,21.973,-38.269,-187.683
0.060,0.387,-0.328,22.705,-37.476,-206.238
0.042,0.432,-0.309,22.339,-35.583,-223.755
0.058,0.476,-0.296,21.606,-34.546,-239.075
0.067,0.505,-0.291,20.142,-32.227,-253.052
0.091,0.502,-0.315,17.822,-30.762,-264.954
0.131,0.513,-0.314,14.282,-30.334,-274.963
0.159,0.552,-0.303,10.071,-31.128,-284.485
0.171,0.589,-0.319,4.089,-31.982,-294.128
0.205,0.646,-0.352,-3.540,-33.081,-304.016
0.234,0.694,-0.389,-12.695,-32.898,-314.148
0.318,0.747,-0.412,-25.391,-33.142,-324.280
0.421,0.954,-0.405,-34.729,-36.560,-332.520
0.388,1.096,-0.450,-44.067,-40.649,-337.402
0.296,1.318,-0.453,-51.819,-43.579,-339.539
0.279,1.500,-0.453,-57.495,-43.701,-342.834
0.203,1.691,-0.421,-61.584,-40.466,-345.215
0.187,1.896,-0.479,-66.650,-42.542,-346.497
0.188,2.110,-0.638,-72.754,-52.429,-347.290
-0.017,2.510,-0.636,-69.519,-60.974,-347.534
-0.410,2.409,-0.553,-64.392,-62.500,-342.590
-0.659,2.321,-0.414,-63.782,-61.707,-335.022
-0.906,2.401,-0.388,-61.462,-63.538,-321.594
-1.039,2.441,-0.558,-55.359,-63.660,-304.626
-0.952,2.431,-0.448,-53.284,-67.749,-279.419
-0.835,2.421,-0.575,-51.392,-87.708,-250.061
-0.818,2.272,-0.736,-42.175,-102.478,-217.896
-1.152,1.964,-0.772,-44.128,-109.253,-196.960
-1.795,2.031,-0.692,-42.664,-109.558,-158.508
-2.372,1.867,-0.479,-26.428,-61.157,-107.910
-2.675,1.568,-0.186,-17.334,2.686,-60.974
-1.980,1.351,-0.070,-12.573,16.296,6.287
-1.319,1.408,-0.230,-2.319,15.625,70.251
-0.868,1.581,-0.336,2.075,-7.996,112.915
-0.907,1.519,-0.271,1.953,-31.372,139.221
-0.643,1.332,-0.262,-2.075,-54.626,159.180
-1.004,1.271,-0.161,-3.906,-67.688,177.551
1.214,0.900,-1.168,-19.897,-95.215,144.043
2.540,1.063,-0.725,-17.029,-82.275,98.206
1.161,1.137,-0.075,-13.550,-19.287,108.215
-0.327,1.536,0.368,1.770,-6.226,147.766
-0.992,1.470,-0.360,-3.174,-33.997,186.646
-0.708,1.712,-0.384,-14.709,-57.617,208.923
0.099,2.184,-0.408,-10.620,-49.744,199.158
0.139,1.459,-0.393,-13.306,-45.715,186.707
0.494,1.002,-0.751,-20.874,-45.410,178.589
-0.116,0.901,-0.136,-18.372,-32.898,173.279
-0.458,0.822,-0.336,-20.996,-17.273,166.260
-0.422,0.557,-0.825,-38.574,-29.236,156.067
-0.663,0.922,-0.776,-45.105,-20.020,137.878
-0.615,1.465,-0.402,-24.841,11.841,121.765
-0.540,1.280,-0.086,-15.259,40.894,107.117
-0.393,1.334,-0.469,-18.982,67.688,95.764
-0.093,1.364,-0.343,-6.042,73.242,89.966
0.331,1.155,-0.460,2.808,66.223,74.646
0.090,0.840,-0.217,-1.831,58.838,67.627
0.326,1.042,-0.417,-1.160,57.739,59.692
-0.385,0.796,-0.198,-13.794,50.598,55.054
0.293,1.371,-0.441,-6.042,48.645,43.945
0.121,0.722,-0.110,-11.597,36.499,35.828
-0.003,1.466,-0.625,-8.362,33.386,37.109
-0.250,0.432,-0.327,-6.531,23.193,24.841
0.350,1.495,-0.366,4.211,23.437,21.301
-0.076,0.329,-0.512,0.183,23.071,12.695
0.241,1.159,-0.246,4.822,30.640,9.644
0.072,0.699,-0.479,0.488,32.654,2.930
0.031,0.964,-0.286,-0.122,37.781,4.211
0.070,0.886,-0.388,-1.709,41.138,1.526
0.260,0.969,-0.261,-0.244,45.959,1.648
0.033,0.751,-0.365,-6.531,43.518,8.179
0.006,1.151,-0.244,-0.427,43.945,15.442
0.272,0.613,-0.379,-4.028,41.626,12.512
0.051,0.930,-0.345,-5.737,36.194,23.315
0.237,0.745,-0.474,-5.432,38.513,20.508
0.079,0.889,-0.448,-5.798,36.194,26.306
0.435,0.870,-0.323,-3.052,38.940,22.461
-0.026,1.005,-0.414,-4.211,35.400,30.029
0.429,0.800,-0.313,-1.709,36.987,27.039
-0.530,1.129,-0.416,-5.249,31.250,42.542
0.824,0.886,-0.171,4.883,39.124,26.306
-0.822,0.867,-0.667,-13.611,26.550,50.232
0.772,1.040,-0.139,4.761,34.363,34.729
-0.751,1.060,-0.556,-9.399,24.109,55.420
0.677,0.715,-0.284,5.554,31.799,41.199
-0.068,1.087,-0.446,-5.127,24.658,54.626
0.205,0.795,-0.377,-0.977,26.550,49.744
0.066,0.994,-0.426,-3.784,24.780,58.411
0.180,1.005,-0.364,-1.465,25.574,61.462
0.005,1.052,-0.408,0.732,24.536,67.993
0.294,0.825,-0.486,-2.258,24.353,71.045
-0.446,1.400,-0.433,2.563,23.193,81.116
0.178,0.924,-0.503,4.211,30.884,79.529
-0.313,1.223,-0.487,7.690,32.410,89.905
0.227,1.094,-0.285,10.681,37.720,91.431
-0.095,1.111,-0.563,9.521,33.875,100.952
0.599,1.137,-0.232,10.071,33.813,101.318
-0.275,1.359,-0.559,8.667,25.757,113.403
0.517,1.167,-0.334,9.094,27.283,113.953
-0.695,1.616,-0.729,10.010,20.264,129.028
0.903,1.404,-0.223,18.066,36.255,119.690
-1.130,1.489,-1.192,10.986,25.696,143.738
0.781,1.329,-0.119,19.958,52.917,135.071
-0.568,1.857,-0.847,19.897,48.462,154.785
0.554,1.374,-0.245,23.560,75.317,149.963
0.102,1.832,-0.692,27.588,76.477,163.025
0.783,1.764,-0.486,27.832,92.468,165.344
0.545,1.998,-0.695,28.564,90.210,181.152
0.912,2.130,-0.692,26.672,92.834,192.017
0.957,2.226,-0.797,26.672,94.910,206.421
1.047,1.949,-0.750,18.860,104.370,216.858
0.775,1.997,-0.549,10.620,110.413,219.604
0.662,1.917,-0.552,1.282,116.760,213.257
0.346,2.076,-0.568,3.418,119.385,209.412
0.309,1.943,-0.658,9.827,115.601,202.026
0.179,1.675,-0.880,10.925,104.492,193.115
0.668,1.489,-0.848,15.869,98.450,174.316
1.239,1.219,-0.689,19.348,80.139,151.978
1.185,0.870,-0.534,17.212,64.331,129.639
0.790,0.538,-0.364,6.897,58.228,108.398
-0.604,0.254,-0.270,-7.324,56.946,99.304
-0.323,0.275,-0.377,-5.371,39.734,80.139
0.496,0.290,-0.226,-1.892,3.174,44.617
0.816,0.504,-0.059,0.000,-27.649,19.104
-0.422,0.548,-0.323,-17.334,-34.546,14.526
-0.021,0.713,-0.356,-12.146,-33.508,-2.502
0.468,0.400,-0.145,1.099,-27.771,-39.917

-0.110,0.468,-0.585,-11.902,28.687,26.611
-0.457,0.338,-0.702,-10.254,30.273,32.776
0.472,1.427,-0.069,11.047,37.720,30.212
-0.126,0.525,-0.600,-6.714,35.889,31.250
0.251,1.086,-0.309,4.272,36.682,32.532
0.042,0.880,-0.406,-3.235,34.973,32.410
0.121,1.008,-0.375,-0.122,32.104,36.255
-0.038,0.902,-0.397,-1.709,29.846,40.771
0.460,0.935,-0.246,1.343,27.771,43.457
-0.452,0.843,-0.541,-5.798,20.020,60.791
0.404,0.942,-0.254,3.357,22.095,59.265
0.000,0.954,-0.516,-3.784,19.470,72.205
-0.045,1.113,-0.409,2.563,23.132,74.341
-0.007,0.973,-0.500,1.587,27.039,81.238
0.271,1.182,-0.366,9.460,35.034,78.735
-0.160,0.850,-0.599,4.089,35.950,87.830
0.451,1.182,-0.269,11.475,39.612,86.548
-0.468,1.056,-0.623,2.747,32.776,103.516
0.377,1.433,-0.019,16.785,39.185,96.985
-0.220,0.916,-0.770,0.000,27.466,113.342
0.120,1.854,0.270,15.808,30.212,114.563
-0.527,1.101,-0.900,3.967,22.156,128.052
0.372,1.450,0.022,19.165,28.198,124.146
-0.029,1.434,-0.813,13.672,24.841,134.827
-0.000,1.392,-0.422,20.081,36.560,134.338
0.099,1.510,-0.727,20.508,41.870,141.663
0.059,1.545,-0.519,22.705,51.758,145.935
0.296,1.627,-0.569,28.076,61.768,149.475
0.426,1.583,-0.529,27.832,67.932,156.860
0.043,1.958,-0.598,31.311,72.205,169.434
0.659,1.869,-0.633,33.447,82.825,174.927
0.610,2.114,-0.693,32.043,86.914,190.369
1.120,2.216,-0.675,32.471,94.055,202.271
1.012,2.058,-0.755,29.236,98.267,217.102
1.177,1.875,-0.561,16.663,100.952,217.407
0.683,2.008,-0.503,6.592,97.900,218.628
0.546,1.982,-0.557,7.935,97.961,211.487
0.015,1.984,-0.709,12.756,91.492,209.900
0.041,1.762,-0.886,23.010,93.201,196.716
0.841,1.451,-0.870,22.156,83.435,179.810
0.968,1.270,-0.875,19.958,63.965,163.574
0.927,0.987,-0.586,15.686,60.852,141.846
0.616,0.748,-0.375,9.277,58.777,121.277
-0.297,0.507,-0.261,0.977,48.889,109.924
-0.299,0.263,-0.522,-3.174,27.954,92.529
0.411,0.428,-0.237,-1.770,-5.920,59.082
0.643,0.554,-0.204,2.075,-36.133,32.410
0.351,0.710,0.017,-3.174,-54.626,18.677
-0.173,0.684,-0.436,-13.123,-61.279,14.709
0.240,0.493,-0.276,-3.784,-55.298,-17.700
0.527,0.172,-0.201,5.920,-50.476,-51.697
0.562,-0.049,-0.138,8.972,-44.617,-78.369
0.432,-0.085,-0.182,5.554,-40.527,-101.318
0.359,0.010,-0.214,2.869,-41.138,-121.277
0.322,0.144,-0.240,2.563,-44.922,-140.442
0.236,0.232,-0.273,3.723,-48.096,-159.241
0.120,0.300,-0.296,5.127,-47.119,-177.979
0.045,0.383,-0.297,8.118,-42.847,-195.679
0.008,0.443,-0.262,12.268,-37.048,-211.243
0.008,0.485,-0.230,15.991,-31.250,-226.379
0.045,0.519,-0.219,18.738,-26.062,-241.150
0.083,0.536,-0.213,19.470,-22.644,-254.822
0.113,0.566,-0.217,18.250,-21.484,-266.296
0.151,0.600,-0.215,16.113,-23.254,-276.184
0.199,0.616,-0.229,11.780,-25.635,-285.461
0.207,0.687,-0.250,5.554,-28.442,-294.800
0.211,0.742,-0.282,-1.282,-29.663,-304.138
0.260,0.793,-0.320,-8.728,-31.799,-313.843
0.358,0.874,-0.342,-18.188,-35.645,-322.754
0.415,1.036,-0.376,-26.917,-43.640,-328.674
0.341,1.200,-0.383,-34.058,-48.889,-333.618
0.333,1.366,-0.389,-41.382,-53.223,-338.562
0.326,1.559,-0.394,-47.302,-58.533,-342.651
0.325,1.738,-0.438,-54.016,-66.345,-344.910
0.274,1.949,-0.508,-59.875,-78.125,-344.543
0.129,2.201,-0.552,-59.875,-88.928,-342.102
-0.120,2.418,-0.553,-54.382,-92.041,-338.257
-0.406,2.458,-0.530,-49.133,-92.285,-333.740
-0.701,2.535,-0.495,-45.776,-85.999,-327.209
-0.882,2.596,-0.521,-41.626,-78.064,-317.566
-0.938,2.511,-0.685,-38.879,-69.885,-303.345
-0.827,2.365,-0.644,-38.086,-61.096,-279.297
-0.661,2.182,-0.675,-40.527,-69.031,-248.962
-0.849,2.045,-0.823,-40.161,-84.595,-217.834
-1.118,1.891,-0.870,-40.527,-81.543,-188.293
-2.005,1.970,-0.789,-39.001,-50.903,-166.321
-2.493,1.718,-0.430,-32.715,-16.296,-117.981
-2.259,1.465,-0.119,-9.094,22.217,-36.987
-1.599,1.286,-0.105,-2.319,34.302,24.902
-1.063,1.335,-0.266,-2.136,16.907,76.904
-0.858,1.531,-0.307,0.732,-9.460,111.084
-1.027,1.460,-0.225,-1.648,-25.452,132.690
-0.937,1.396,-0.204,-6.409,-45.349,155.212
-0.988,1.415,-0.244,-10.437,-56.641,168.762
-0.515,1.432,-0.337,-7.141,-59.875,172.363
1.159,1.078,-0.727,-4.150,-65.918,139.038
2.384,0.887,-0.756,-1.709,-48.462,97.900
1.766,0.952,-0.076,-1.831,-1.282,93.506
0.165,1.237,0.234,5.554,3.479,133.301
-0.267,1.457,0.407,10.132,-36.438,166.016
-0.461,1.117,-0.672,-18.860,-80.933,189.880
-0.702,1.666,-0.449,-27.527,-95.886,189.514
0.245,1.830,-0.634,-20.020,-91.492,173.462
-0.353,1.188,-0.414,-31.738,-65.430,161.987
-0.146,1.458,-0.215,-22.705,-31.250,157.288
-0.471,1.209,-0.136,-12.024,5.066,152.405
-0.253,0.952,-0.270,-21.790,16.174,143.982
-0.272,0.743,-0.922,-37.292,22.827,127.869
-0.775,1.087,-0.651,-41.931,31.128,114.380
-0.250,1.417,-0.512,-23.804,47.791,104.309
-0.147,1.047,-0.317,-18.250,52.002,91.980
-0.057,1.010,-0.681,-18.555,51.880,83.313
-0.030,1.094,-0.324,-7.202,51.636,75.439
0.297,1.058,-0.492,-6.409,50.476,62.805
-0.058,0.939,-0.183,-10.010,51.453,56.763
0.388,1.140,-0.498,-7.690,54.321,48.401
-0.472,0.873,-0.249,-14.465,52.979,48.584
0.390,1.409,-0.498,1.526,49.927,37.537
-0.019,0.579,-0.116,-5.127,45.105,30.884
-0.004,1.456,-0.625,1.465,44.189,35.156
-0.305,0.343,-0.359,0.549,41.260,22.888
0.389,1.483,-0.389,9.827,43.335,20.996
-0.045,0.273,-0.470,1.343,39.001,11.902
0.321,1.175,-0.228,4.761,38.696,11.475
0.094,0.664,-0.410,-0.732,35.400,7.202
0.093,0.992,-0.274,-0.549,36.926,9.644
0.057,0.893,-0.325,-1.465,37.109,9.521
0.376,0.957,-0.286,0.183,39.246,7.996
-0.167,0.711,-0.379,-7.935,35.461,19.043
0.090,1.126,-0.297,-0.183,36.072,20.996
0.166,0.645,-0.390,-5.066,32.471,21.606
0.026,0.977,-0.322,-1.770,33.813,30.029
0.166,0.792,-0.423,-2.930,33.569,28.564
0.124,0.933,-0.386,-1.831,33.264,32.227
0.357,0.786,-0.380,-3.784,33.936,30.151
0.109,1.093,-0.369,-2.502,34.363,33.875
0.097,0.716,-0.436,-7.385,34.485,35.156
-0.350,1.344,-0.284,1.282,34.485,40.955
0.649,0.630,-0.313,-2.441,37.415,30.029
-0.671,1.380,-0.467,-2.930,27.649,48.767
0.241,0.488,-0.401,-3.845,31.616,36.560
-0.115,1.620,-0.218,1.831,25.940,48.340
0.253,0.331,-0.544,-5.005,30.334,39.856
0.256,1.253,-0.377,0.183,25.208,50.842
0.164,0.719,-0.480,-4.700,25.757,51.758
0.094,0.978,-0.469,-1.709,23.315,64.148
0.070,0.851,-0.521,-1.648,24.475,70.068
0.483,1.020,-0.349,1.831,26.794,73.364
-0.578,1.014,-0.728,-2.502,24.536,87.646
0.287,1.249,-0.250,9.949,35.645,86.914
-0.102,1.187,-0.561,8.118,38.574,97.595
-0.030,1.234,-0.259,13.794,43.274,101.929
0.076,1.074,-0.407,10.254,39.307,110.413
0.404,1.317,-0.149,13.672,37.231,110.962
-0.189,1.134,-0.544,6.714,29.663,121.582
0.487,1.371,-0.122,12.939,29.602,121.399
-0.610,1.356,-0.790,5.737,23.071,138.062
0.537,1.613,-0.122,20.874,37.720,130.249
-0.673,1.226,-1.235,8.423,31.860,148.499
0.512,1.760,0.012,23.071,53.772,146.118
-0.550,1.656,-1.072,18.005,55.969,162.964
0.616,1.425,-0.197,26.306,76.843,158.081
0.124,2.000,-0.797,25.940,80.139,168.762
0.807,1.903,-0.504,31.677,96.924,172.852
0.736,2.218,-0.905,33.264,94.971,190.063
1.237,2.064,-0.945,32.837,102.722,203.735
1.135,2.034,-0.951,27.527,106.873,211.792
0.952,1.815,-0.757,10.620,114.441,212.952
0.520,2.104,-0.592,4.700,118.835,216.675
0.428,2.021,-0.577,0.732,121.643,211.670
0.200,2.098,-0.573,8.118,116.455,209.595
0.067,1.824,-0.684,11.841,105.469,203.613
0.305,1.559,-0.916,12.329,91.064,190.857
0.849,1.393,-0.704,17.334,83.862,165.833
1.248,1.065,-0.576,18.005,66.772,142.273
0.871,0.755,-0.503,11.963,59.265,121.948
0.393,0.590,-0.328,4.456,63.477,103.516
-0.792,0.312,-0.319,-3.418,58.228,96.436
-0.169,0.321,-0.434,-0.366,37.109,70.557
0.626,0.376,-0.181,6.287,5.310,33.020
0.761,0.580,0.010,4.822,-19.348,9.460
-0.335,0.642,-0.456,-10.193,-23.315,9.399
0.164,0.715,-0.239,0.977,-21.973,-10.315
0.469,0.328,-0.117,10.925,-22.156,-41.931
0.615,0.082,-0.069,15.198,-21.606,-69.885
0.616,0.013,-0.068,15.686,-21.545,-94.727
0.507,0.081,-0.100,13.977,-27.649,-112.122
0.419,0.195,-0.112,11.597,-37.415,-128.052
0.347,0.287,-0.158,10.193,-46.753,-144.409
0.225,0.347,-0.220,9.644,-53.162,-160.950
0.117,0.380,-0.266,9.827,-55.786,-177.246
0.082,0.428,-0.276,10.681,-56.946,-193.420
0.068,0.470,-0.272,11.292,-59.082,-207.825
0.077,0.499,-0.268,11.719,-59.998,-221.802
0.080,0.518,-0.276,11.169,-60.974,-234.924
0.105,0.531,-0.291,10.742,-61.401,-246.338
0.148,0.551,-0.294,9.094,-61.279,-257.751
0.175,0.613,-0.302,8.423,-61.584,-267.212
0.187,0.671,-0.327,5.920,-63.232,-275.757
0.171,0.746,-0.350,2.319,-62.256,-284.973
0.202,0.776,-0.397,-3.723,-60.852,-294.617
0.243,0.829,-0.435,-10.498,-58.044,-304.749
0.318,0.886,-0.452,-18.066,-54.382,-314.636
0.371,1.040,-0.456,-27.527,-56.519,-320.679
0.250,1.284,-0.460,-33.386,-57.922,-322.876
0.179,1.439,-0.511,-35.339,-53.711,-324.524
0.124,1.591,-0.515,-37.170,-45.227,-329.468
0.034,1.765,-0.551,-38.879,-33.630,-334.229
-0.002,1.945,-0.680,-44.434,-29.053,-338.196
-0.068,2.159,-0.775,-52.002,-30.396,-340.332
-0.248,2.187,-0.799,-60.852,-27.832,-340.393
-0.375,2.236,-0.699,-67.444,-21.057,-340.149
-0.554,2.162,-0.642,-68.481,-10.010,-337.524
-0.567,2.049,-0.481,-71.106,0.122,-329.346
-0.608,2.210,-0.359,-72.937,-0.122,-313.477
-0.690,2.510,-0.331,-69.336,-10.681,-291.199
-0.827,2.635,-0.316,-58.350,-29.175,-264.832
-0.960,2.397,-0.360,-47.180,-51.819,-235.046
-1.255,2.093,-0.390,-40.527,-66.223,-204.773
-1.762,1.989,-0.568,-27.588,-44.250,-165.833
-2.340,1.746,-0.320,-27.039,-15.381,-127.563
-2.132,1.392,-0.127,-23.254,-0.305,-50.720
-1.459,1.302,-0.054,-11.108,6.226,32.227
-0.799,1.416,-0.147,-9.155,-2.747,81.116
-0.587,1.433,-0.194,-8.484,-34.668,116.272
-0.644,1.471,-0.110,-7.080,-62.012,140.869
-0.681,1.398,-0.122,-10.742,-91.553,164.551
-0.880,1.325,-0.095,-17.212,-113.098,184.448
-0.549,1.347,-0.137,-18.860,-123.108,192.139
-0.098,1.145,-0.253,-16.724,-121.399,180.054
1.873,0.913,-0.959,-19.653,-135.193,144.348
2.109,0.669,-0.843,-29.297,-92.590,106.934
0.980,1.214,0.057,-14.893,-36.438,115.784
-0.297,1.368,0.244,0.427,-42.847,152.283
-0.678,1.361,0.020,-2.075,-70.129,168.579
-0.611,1.673,-0.395,-6.348,-84.534,178.101
-0.816,1.726,-0.676,-16.479,-72.815,177.551
0.709,1.753,-0.466,-16.663,-62.378,160.706

0.535,0.027,-0.173,24.902,-10.620,-94.299
0.485,0.090,-0.188,23.010,-17.090,-112.244
0.431,0.195,-0.214,20.569,-26.123,-127.869
0.349,0.279,-0.254,20.142,-35.034,-147.034
0.196,0.328,-0.293,20.264,-37.781,-166.931
0.111,0.387,-0.312,20.630,-36.682,-186.523
0.050,0.424,-0.296,20.874,-32.471,-203.796
0.034,0.457,-0.295,20.691,-26.672,-218.689
0.016,0.501,-0.269,20.630,-20.813,-232.300
0.043,0.506,-0.265,19.775,-15.442,-244.812
0.126,0.498,-0.259,16.602,-14.709,-257.019
0.218,0.523,-0.248,11.719,-18.799,-268.188
0.266,0.555,-0.265,5.371,-25.146,-279.297
0.299,0.621,-0.302,-1.831,-33.325,-289.185
0.304,0.719,-0.339,-9.033,-38.574,-298.584
0.291,0.794,-0.353,-16.296,-39.917,-308.594
0.400,0.864,-0.355,-25.635,-42.725,-318.665
0.456,1.018,-0.374,-34.851,-51.941,-325.623
0.335,1.214,-0.414,-40.588,-58.655,-327.820
0.208,1.353,-0.425,-43.884,-57.617,-328.247
0.169,1.512,-0.390,-46.692,-52.979,-331.238
0.165,1.661,-0.416,-50.964,-53.040,-333.496
0.171,1.877,-0.561,-55.664,-60.791,-336.426
0.104,2.087,-0.637,-56.152,-73.486,-337.219
-0.049,2.133,-0.572,-57.373,-86.121,-336.426
-0.262,2.169,-0.496,-59.692,-96.008,-332.092
-0.487,2.206,-0.485,-62.073,-107.178,-321.167
-0.776,2.463,-0.509,-59.814,-112.183,-311.462
-1.007,2.714,-0.640,-52.185,-111.023,-300.781
-1.037,2.708,-0.779,-44.739,-103.516,-284.973
-1.040,2.438,-0.761,-41.687,-98.145,-254.456
-1.152,2.260,-0.948,-37.354,-100.891,-222.290
-1.457,2.006,-1.055,-35.767,-89.478,-196.838
-1.866,1.795,-0.910,-40.894,-70.007,-168.518
-2.311,1.741,-0.670,-31.250,-29.968,-121.216
-2.375,1.590,-0.375,-17.639,26.917,-72.876
-1.953,1.246,-0.212,-13.184,52.612,-25.879
-1.374,1.394,-0.234,-2.808,42.419,40.283
-1.024,1.379,-0.353,0.671,26.672,85.510
-0.979,1.412,-0.330,0.305,5.005,117.004
-0.848,1.328,-0.413,-4.456,-17.334,139.160
-0.731,1.401,-0.051,-5.066,-39.001,157.959
0.281,1.059,-0.507,-9.460,-58.044,150.452
2.510,1.121,-0.629,-10.742,-71.838,102.722
2.528,1.182,0.255,-3.296,-35.278,90.088
0.411,1.234,0.233,-3.723,-32.349,141.663
-0.800,1.346,0.024,-12.146,-76.111,184.387
-0.416,1.404,-0.657,-33.691,-116.150,199.158
-0.606,1.956,-0.298,-37.048,-100.708,195.312
0.001,2.077,-0.260,-22.217,-80.200,182.617
-0.060,1.230,-0.606,-30.640,-57.739,171.814
-0.043,1.134,-0.231,-26.550,-30.640,160.767
-0.177,0.950,-0.358,-19.409,-18.616,155.396
-0.643,0.612,-0.589,-29.724,-22.522,156.860
-0.345,0.692,-1.145,-43.091,-16.541,141.907
-0.599,1.091,-0.780,-37.659,-8.118,123.901
-0.308,1.557,-0.137,-12.085,34.363,108.154
-0.500,1.145,-0.252,-15.747,61.951,98.267
0.288,1.270,-0.462,-9.460,75.195,81.787
-0.240,1.074,-0.377,-6.592,78.003,75.623
0.626,1.150,-0.243,4.272,67.444,66.101
-0.761,0.748,-0.467,-16.235,62.256,69.946
1.047,1.219,-0.289,2.808,52.490,50.415
-0.854,0.581,-0.272,-23.865,43.396,55.969
0.922,1.678,-0.263,-2.869,40.955,49.377
-1.010,0.465,-0.538,-21.362,34.119,46.936
0.929,1.487,-0.182,3.418,36.194,33.630
-0.371,0.458,-0.496,-9.521,37.415,27.954
0.361,0.981,-0.324,3.113,40.466,20.142
-0.001,0.796,-0.490,-3.235,39.795,14.832
0.169,0.915,-0.406,1.343,40.466,14.160
-0.000,0.836,-0.400,-0.488,39.368,13.550
0.507,0.942,-0.278,2.380,39.795,8.850
-0.500,0.832,-0.462,-7.385,36.438,22.705
0.355,1.085,-0.261,3.784,38.757,13.672
0.045,0.787,-0.314,-4.517,34.973,21.423
0.125,0.894,-0.353,-0.305,33.630,24.048
0.153,0.810,-0.422,-3.174,30.518,24.719
0.266,0.931,-0.341,0.244,31.799,24.841
0.163,0.725,-0.428,-3.784,32.043,25.085
0.234,1.124,-0.295,2.869,36.316,25.696
-0.068,0.667,-0.465,-6.287,34.790,30.701
-0.109,1.279,-0.276,5.188,37.170,33.386
0.478,0.503,-0.412,-6.287,36.804,28.687
-0.428,1.465,-0.396,-0.977,30.701,44.678
0.114,0.416,-0.522,-6.836,33.997,37.537
0.047,1.633,-0.213,5.981,30.518,48.096
0.143,0.409,-0.562,-2.441,32.471,42.175
0.251,1.218,-0.321,3.723,27.100,47.913
0.046,0.776,-0.437,-2.991,27.405,43.762
-0.029,0.994,-0.388,-0.732,25.513,49.133
-0.025,0.871,-0.429,-1.892,27.527,50.415
0.411,1.001,-0.265,1.404,27.710,52.002
-0.443,0.814,-0.640,-7.568,20.508,66.467
0.252,1.128,-0.212,1.526,23.926,64.758
-0.057,0.984,-0.491,-4.089,23.254,74.585
-0.123,1.119,-0.392,1.526,27.771,75.378
0.035,0.937,-0.453,-0.061,30.579,81.787
0.211,1.191,-0.441,5.859,35.278,80.566
-0.111,0.904,-0.554,0.854,34.851,90.393
0.432,1.217,-0.243,7.996,36.621,89.905
-0.379,1.046,-0.519,-1.404,26.001,107.605
0.337,1.441,-0.048,10.742,29.907,101.746
-0.230,0.958,-0.708,-3.479,18.005,119.751
0.178,1.839,0.062,10.559,23.499,119.019
-0.552,1.250,-1.032,1.648,19.836,133.728
0.385,1.451,-0.260,15.198,34.363,128.723
-0.076,1.471,-0.849,10.559,37.659,141.724
0.162,1.323,-0.433,12.878,54.871,140.869
0.141,1.561,-0.634,13.672,61.890,150.269
0.457,1.520,-0.428,12.817,72.510,154.175
0.347,1.863,-0.580,17.700,78.613,161.133
0.502,1.739,-0.589,17.578,84.290,166.870
0.121,2.186,-0.756,19.226,87.036,178.772
0.885,2.179,-0.804,22.339,103.455,183.838
0.948,2.285,-0.790,31.616,116.516,199.768
1.166,1.855,-0.686,26.062,126.587,205.627
0.686,1.730,-0.583,9.583,122.253,211.243
0.561,1.792,-0.512,1.221,119.202,203.979
0.153,1.955,-0.568,3.113,112.671,201.904
0.009,1.816,-0.695,10.437,106.567,195.190
0.287,1.609,-0.920,11.719,96.313,179.749
0.719,1.462,-0.844,16.296,87.524,162.292
1.035,1.179,-0.632,14.771,75.195,142.944
0.714,0.918,-0.486,9.033,67.444,125.610
0.515,0.753,-0.280,8.118,62.866,107.910
-0.545,0.393,-0.243,2.441,53.162,97.900
-0.155,0.313,-0.466,-2.502,29.236,77.087
0.472,0.459,-0.183,2.075,-0.916,44.800
0.816,0.607,-0.159,5.371,-28.931,21.545
-0.094,0.627,-0.258,-6.775,-39.795,14.771
-0.005,0.704,-0.356,-5.066,-39.856,3.601
0.322,0.404,-0.178,5.859,-33.875,-28.503
0.484,0.100,-0.142,12.451,-27.222,-58.105
0.500,-0.037,-0.109,13.428,-20.081,-84.534
0.411,0.012,-0.124,12.451,-17.151,-106.506
0.329,0.111,-0.141,10.498,-19.043,-123.840
0.269,0.230,-0.152,8.850,-22.156,-140.930
0.220,0.300,-0.199,7.874,-25.818,-159.424
0.153,0.364,-0.234,6.775,-28.015,-177.002
0.087,0.412,-0.252,6.897,-28.442,-192.566
0.046,0.441,-0.223,7.141,-27.283,-207.153
0.072,0.479,-0.214,7.446,-26.428,-221.069
0.104,0.485,-0.205,6.897,-27.100,-234.680
0.131,0.497,-0.204,5.310,-28.259,-247.314
0.179,0.514,-0.201,2.502,-30.579,-258.423
0.237,0.560,-0.212,-1.526,-37.292,-267.517
0.266,0.625,-0.234,-7.019,-44.617,-276.245
0.246,0.705,-0.291,-13.000,-49.744,-285.156
0.265,0.754,-0.314,-18.982,-53.650,-293.884
0.330,0.834,-0.333,-24.414,-58.472,-303.467
0.389,0.940,-0.329,-29.907,-63.721,-312.927
0.458,1.062,-0.350,-36.560,-70.923,-319.397
0.422,1.273,-0.387,-41.382,-77.576,-323.730
0.296,1.478,-0.388,-42.297,-77.881,-329.224
0.242,1.602,-0.405,-41.687,-70.374,-335.266
0.218,1.723,-0.409,-41.809,-60.852,-340.515
0.273,1.860,-0.430,-43.396,-56.702,-343.018
0.285,2.043,-0.442,-45.776,-58.167,-342.896
0.190,2.333,-0.464,-45.044,-59.265,-345.886
0.015,2.454,-0.440,-41.382,-58.899,-345.825
-0.238,2.572,-0.405,-36.194,-54.443,-344.727
-0.490,2.649,-0.381,-29.053,-46.570,-339.294
-0.713,2.625,-0.426,-24.597,-40.649,-326.477
-0.841,2.577,-0.672,-23.926,-38.269,-306.091
-0.945,2.227,-0.657,-31.250,-35.522,-274.963
-1.035,2.189,-0.734,-37.781,-50.537,-238.342
-1.302,1.908,-0.926,-41.504,-72.205,-198.669
-1.719,1.825,-0.980,-41.138,-59.937,-160.583
-2.548,1.727,-0.833,-42.053,-27.588,-131.592
-2.527,1.576,-0.386,-24.109,4.517,-58.838
-1.796,1.212,-0.201,-8.179,16.113,17.456
-1.023,1.172,-0.270,-7.690,9.338,66.895
-0.597,1.409,-0.392,-10.010,-14.282,100.647
-0.449,1.333,-0.504,-13.794,-40.894,120.422
-0.461,1.215,-0.365,-24.536,-63.843,131.836
-0.648,1.337,-0.078,-26.611,-84.961,148.315
-0.938,1.337,-0.090,-24.231,-89.050,166.687
-0.941,1.352,-0.049,-17.212,-83.313,177.673
1.092,1.129,-0.454,-7.812,-82.214,144.226
2.454,1.078,-0.174,5.676,-66.284,97.168
1.672,0.870,-0.083,-2.258,-18.433,96.375
0.031,1.203,0.080,-3.418,-14.587,134.094
-0.347,1.493,0.168,-5.371,-53.406,163.696
-0.731,1.402,-1.070,-39.612,-89.417,195.984
-0.690,2.379,-0.112,-34.912,-84.351,189.331
0.291,2.161,-0.438,-20.508,-71.777,174.805
-0.077,1.146,-0.240,-30.396,-46.753,163.696
0.022,1.229,-0.274,-32.715,-18.494,155.090
-0.415,1.070,-0.258,-24.353,-3.113,159.058
-0.406,0.727,-0.891,-36.011,5.798,152.893
-0.273,0.961,-1.042,-30.457,9.827,127.869
-0.641,0.973,-0.355,-16.113,30.334,113.281
-0.454,0.975,-0.513,-20.264,55.847,97.961
-0.314,1.002,-0.432,-20.874,75.562,79.529
-0.167,1.294,-0.530,-10.803,93.811,76.355
-0.048,1.164,-0.359,-3.662,96.436,72.144
0.498,1.184,-0.366,0.061,93.628,63.110
-0.010,0.832,-0.234,-7.507,86.670,57.556
0.797,1.107,-0.270,-4.272,70.435,46.692
-0.462,0.722,-0.320,-18.188,52.734,47.241
0.809,1.398,-0.309,2.319,42.175,36.926
-0.532,0.483,-0.427,-19.470,35.400,37.659
0.534,1.628,-0.287,3.967,37.964,31.921
-0.835,0.337,-0.676,-15.198,34.729,26.489
0.708,1.365,-0.240,10.132,42.175,18.250
-0.217,0.484,-0.551,-6.592,38.879,12.817
0.343,1.071,-0.314,7.812,40.771,10.742
0.169,0.731,-0.470,-0.122,36.743,6.104
0.186,0.973,-0.387,2.869,34.485,9.460
0.017,0.856,-0.475,1.465,29.907,10.193
0.514,0.960,-0.289,3.967,29.846,7.629
-0.383,0.829,-0.486,-2.869,24.597,19.104
0.328,1.021,-0.264,7.507,28.992,12.939
0.018,0.780,-0.349,-2.136,25.635,19.836
0.055,0.964,-0.398,4.639,30.029,20.203
0.108,0.776,-0.445,0.671,33.325,20.447
0.466,1.047,-0.380,5.493,39.551,18.494
0.187,0.661,-0.506,-3.296,30.884,21.362
0.242,1.051,-0.279,2.930,34.729,20.386
-0.164,0.673,-0.488,-7.874,30.640,25.879
-0.033,1.303,-0.222,6.836,38.086,24.109
0.373,0.428,-0.469,-10.681,31.555,21.912
-0.484,1.596,-0.252,3.357,34.424,33.813
-0.092,0.369,-0.587,-10.986,31.860,26.917
0.237,1.536,-0.104,6.714,36.560,35.706
0.100,0.375,-0.498,-8.789,33.997,31.921
0.290,1.135,-0.310,2.258,33.691,44.434
0.198,0.673,-0.390,-7.019,32.104,47.119
0.281,0.975,-0.434,-1.953,28.259,59.570
0.083,0.869,-0.549,-5.798,27.283,65.247
0.469,1.069,-0.332,-0.488,29.724,69.824
-0.614,1.056,-0.645,-3.845,28.320,84.106
0.292,1.113,-0.145,10.254,36.621,82.886
-0.114,1.051,-0.520,5.371,32.593,92.102
-0.006,1.114,-0.255,12.207,35.767,94.788
0.004,1.061,-0.620,9.949,32.166,101.563
0.466,1.265,-0.234,17.761,34.302,100.830

-0.737,1.571,-0.252,-18.188,-92.957,184.631
-0.369,1.823,-0.427,-17.151,-94.849,174.988
-0.083,1.459,-0.700,-30.029,-81.787,164.246
0.109,1.470,-0.111,-28.931,-46.997,148.926
-0.411,1.368,-0.267,-21.118,-11.536,146.606
-0.482,1.090,0.072,-19.470,9.033,142.517
-0.026,0.819,-0.773,-29.236,16.602,127.747
-0.301,0.713,-0.354,-35.339,15.381,115.845
-0.255,0.891,-1.372,-42.542,6.958,119.568
-0.615,1.104,-0.489,-30.518,9.277,106.506
0.345,1.522,-0.361,-11.597,23.926,87.280
-0.378,0.859,-0.415,-15.991,32.593,81.848
0.174,1.179,-0.389,-7.874,41.443,71.167
-0.087,0.992,-0.330,-7.996,49.133,63.477
0.037,1.066,-0.292,-5.920,59.387,57.800
-0.137,0.983,-0.348,-7.263,62.500,51.697
0.489,1.075,-0.148,-7.507,61.035,42.664
-0.431,1.036,-0.545,-15.686,55.298,48.401
0.584,1.128,-0.200,1.526,50.476,34.668
-0.224,0.862,-0.380,-8.179,49.194,34.912
0.255,0.926,-0.398,0.671,42.542,26.855
-0.078,0.765,-0.466,-5.005,41.138,20.264
0.569,0.921,-0.363,3.174,40.283,12.512
-0.218,0.710,-0.495,-6.592,38.391,14.465
0.663,1.008,-0.291,3.662,39.795,5.859
-0.624,0.798,-0.451,-8.667,36.621,20.752
0.715,1.141,-0.318,8.728,38.940,6.775
-0.377,0.570,-0.370,-11.108,35.156,22.156
0.464,1.336,-0.213,4.578,36.377,20.447
-0.449,0.422,-0.568,-10.742,26.733,30.151
0.640,1.264,-0.072,4.517,32.593,25.146
-0.073,0.536,-0.525,-8.118,25.452,31.067
0.450,0.991,-0.218,0.061,31.250,29.907
0.006,0.835,-0.431,-6.836,27.344,33.569
0.205,0.983,-0.314,-2.930,30.701,36.133
-0.036,0.949,-0.410,-3.357,31.250,37.476
0.444,0.909,-0.306,-1.526,33.875,35.645
-0.565,1.034,-0.508,-6.592,29.175,44.983
0.185,0.917,-0.294,0.732,35.278,37.170
-0.115,1.026,-0.412,-3.296,32.166,44.006
0.093,0.932,-0.364,1.099,36.011,41.138
-0.022,0.882,-0.523,-2.686,32.349,46.875
0.546,0.914,-0.291,0.916,35.156,43.091
-0.165,0.877,-0.544,-4.517,29.358,54.382
0.576,0.814,-0.268,-2.075,29.236,52.856
-0.606,1.131,-0.522,-7.385,20.813,70.923
1.007,0.956,-0.122,2.502,30.884,58.655
-1.140,1.042,-0.842,-11.047,18.311,85.205
0.864,1.036,-0.002,5.249,31.677,71.899
-0.727,1.499,-0.622,-0.488,22.339,93.079
0.438,0.761,-0.415,4.089,34.485,80.872
-0.113,1.389,-0.474,3.113,30.029,94.360
0.267,1.180,-0.256,5.920,40.344,90.820
-0.014,1.183,-0.479,5.676,35.156,102.966
0.278,1.194,-0.149,7.263,33.447,109.314
0.292,1.392,-0.281,10.864,25.513,115.967
-0.162,1.067,-0.596,3.418,17.456,128.906
0.029,1.566,-0.364,12.329,20.447,131.836
0.051,1.400,-0.747,11.963,25.208,138.794
-0.161,1.609,-0.637,20.752,36.682,145.081
0.212,1.427,-0.683,22.217,48.035,152.039
0.279,1.547,-0.569,26.733,59.875,156.433
0.335,1.453,-0.619,25.024,71.167,162.720
0.497,1.639,-0.486,25.330,78.857,164.062
0.072,1.804,-0.714,22.949,81.116,174.377
0.690,2.165,-0.493,33.203,93.140,177.673
0.762,2.073,-0.846,29.602,91.309,196.045
0.910,2.280,-0.744,36.743,102.173,210.205
0.987,1.907,-0.758,25.085,109.924,219.604
0.973,1.800,-0.510,16.113,113.403,217.224
0.874,1.881,-0.567,3.296,107.727,215.942
0.332,1.997,-0.554,7.874,105.225,214.539
0.245,1.869,-0.715,10.620,96.069,206.482
0.213,1.690,-0.867,13.489,83.618,196.594
0.711,1.505,-0.745,18.188,81.177,174.072
1.044,1.226,-0.620,22.827,74.463,151.001
1.079,0.832,-0.541,22.461,62.622,129.517
0.639,0.590,-0.275,16.357,60.120,110.535
-0.627,0.291,-0.286,3.357,54.626,104.980
-0.443,0.327,-0.397,4.028,36.011,85.449
0.449,0.359,-0.295,8.606,4.395,46.326
0.853,0.650,-0.010,13.672,-25.696,18.860
-0.377,0.619,-0.319,-2.197,-38.086,17.517
-0.092,0.741,-0.445,-1.343,-41.565,5.737
0.372,0.453,-0.224,10.193,-39.368,-29.053
0.518,0.156,-0.176,15.564,-36.621,-58.105
0.522,0.030,-0.147,16.174,-31.128,-85.266
0.458,0.059,-0.174,13.733,-29.663,-108.398
0.371,0.138,-0.165,10.132,-33.325,-127.930
0.317,0.245,-0.196,8.911,-40.161,-147.217
0.266,0.283,-0.249,8.667,-47.241,-164.734
0.133,0.360,-0.279,8.301,-53.406,-182.007
0.059,0.412,-0.291,9.460,-56.274,-198.608
-0.016,0.501,-0.284,12.512,-56.335,-212.585
0.010,0.470,-0.288,13.245,-55.847,-226.013
0.062,0.491,-0.304,12.939,-55.786,-238.464
0.098,0.529,-0.325,11.230,-57.373,-251.404
0.107,0.554,-0.346,10.010,-58.167,-261.902
0.126,0.575,-0.368,7.629,-60.303,-271.118
0.162,0.640,-0.374,4.822,-62.805,-281.372
0.209,0.691,-0.392,0.977,-65.308,-292.236
0.235,0.733,-0.440,-4.639,-63.660,-302.795
0.286,0.813,-0.464,-11.230,-59.753,-312.988
0.296,0.948,-0.433,-16.907,-55.603,-321.167
0.293,1.064,-0.449,-24.902,-52.307,-326.660
0.305,1.231,-0.518,-31.128,-51.697,-329.529
0.175,1.381,-0.514,-35.583,-46.936,-332.336
0.044,1.551,-0.533,-39.001,-35.217,-338.379
0.044,1.722,-0.586,-43.152,-25.391,-345.276
0.180,1.893,-0.660,-52.185,-27.893,-349.182
0.278,2.112,-0.757,-62.927,-43.213,-350.464
0.024,2.426,-0.686,-64.514,-55.969,-349.731
-0.419,2.392,-0.583,-59.692,-57.983,-342.407
-0.694,2.388,-0.425,-57.739,-56.702,-333.252
-0.900,2.389,-0.412,-57.739,-57.129,-319.031
-0.921,2.444,-0.568,-57.678,-58.533,-298.035
-0.816,2.499,-0.519,-53.223,-64.453,-270.081
-0.897,2.376,-0.652,-46.814,-75.989,-238.770
-1.031,2.035,-0.725,-46.265,-90.393,-208.130
-0.899,1.887,-0.737,-43.091,-72.144,-178.650
-1.977,1.925,-0.621,-46.448,-52.551,-161.987
-2.180,1.713,-0.332,-31.677,-26.672,-104.004
-1.857,1.262,-0.179,-20.325,1.038,-31.982
-1.302,1.225,-0.227,-16.968,-0.183,29.907
-1.049,1.335,-0.345,-16.235,-15.808,77.454
-1.144,1.506,-0.240,-11.169,-24.048,107.422
-1.255,1.471,-0.109,-5.188,-30.090,133.972
-1.167,1.374,-0.140,-5.798,-36.682,151.611
-1.109,1.479,-0.107,-6.897,-43.274,165.405
-0.761,1.462,-0.190,-4.578,-45.105,172.119
0.634,1.208,-0.583,-3.113,-53.406,149.353
2.562,0.965,-0.747,-6.165,-52.917,101.257
2.374,0.958,-0.171,-4.761,2.136,80.566
0.680,1.442,0.769,14.038,16.418,112.122
-0.501,1.525,0.457,16.113,-17.517,153.015
-0.873,1.167,-0.569,-11.719,-58.594,169.556
-0.732,1.876,-0.514,-20.508,-67.017,159.058
-0.346,1.939,-0.729,-15.137,-58.167,153.992
0.053,1.524,-0.351,-15.137,-34.973,143.555
-0.192,1.390,-0.396,-14.954,0.488,136.719
-0.193,1.280,0.032,-0.732,26.306,134.583
0.177,0.831,-0.436,-1.831,36.255,130.310
-0.268,0.560,-0.656,-17.212,33.447,118.896
0.033,0.772,-1.024,-24.841,22.400,115.784
-0.823,0.909,-0.917,-31.555,32.715,111.938
0.640,1.403,-0.476,-10.010,49.072,89.600
-1.221,0.760,-0.571,-26.428,71.960,80.750
0.584,1.708,-0.255,9.705,78.918,74.585
-0.693,0.736,-0.533,-3.601,79.529,69.275
0.897,1.145,-0.131,14.832,71.045,55.542
-0.067,0.940,-0.281,-4.028,62.378,53.894
0.575,0.921,-0.260,2.930,50.598,40.894
0.157,1.022,-0.268,-8.972,41.748,37.842
0.337,1.068,-0.290,-4.395,31.921,32.959
0.113,1.083,-0.361,-2.869,29.358,24.658
0.024,0.691,-0.479,-5.615,23.560,22.522
-0.079,1.275,-0.429,4.822,23.804,19.409
0.167,0.611,-0.482,3.113,25.513,11.780
-0.167,1.039,-0.444,7.874,27.527,14.771
0.188,0.734,-0.483,7.385,29.480,7.263
0.105,0.986,-0.380,7.935,31.433,8.606
0.539,0.719,-0.360,6.958,30.945,3.113
-0.031,1.036,-0.359,5.554,30.945,8.789
0.505,0.732,-0.309,5.615,30.212,5.310
-0.328,1.087,-0.424,3.601,28.870,17.944
0.832,0.780,-0.199,10.864,30.090,6.226
-0.510,0.719,-0.704,-5.615,24.292,26.550
0.610,0.979,-0.154,11.963,28.625,14.648
-0.367,0.812,-0.622,-5.859,23.621,32.532
0.505,0.778,-0.194,9.338,24.414,20.081
-0.014,0.845,-0.500,-3.540,21.851,31.799
0.213,0.807,-0.238,2.991,25.208,23.865
0.186,0.875,-0.416,-4.517,21.362,32.104
0.221,0.890,-0.297,-4.333,20.569,29.419
0.001,0.934,-0.376,-6.409,19.592,34.790
0.365,0.806,-0.288,-8.728,17.395,32.043
-0.531,1.099,-0.484,-9.888,16.785,42.236
0.174,0.850,-0.243,-6.165,22.217,36.255
-0.117,1.026,-0.416,-8.240,22.583,46.570
0.152,0.889,-0.315,-5.981,27.771,45.959
0.039,0.891,-0.484,-9.827,26.917,56.641
0.604,0.937,-0.309,-5.920,30.457,55.237
-0.067,0.843,-0.604,-10.681,29.602,68.420
0.517,0.960,-0.370,-5.798,34.180,67.627
-0.622,1.134,-0.636,-8.972,33.630,85.632
0.741,1.212,-0.067,5.920,43.274,74.768
-0.794,0.920,-0.920,-7.019,35.522,97.229
0.714,1.355,0.083,13.245,42.358,91.431
-0.880,1.255,-0.724,1.099,33.936,110.168
0.775,0.941,-0.053,16.357,41.443,102.417
-0.227,1.401,-0.594,9.827,32.593,117.432
0.311,1.078,-0.167,14.954,37.903,117.249
-0.066,1.382,-0.610,13.123,30.151,125.854
0.283,1.343,-0.346,14.893,32.043,128.784
0.063,1.590,-0.612,20.630,33.020,131.104
0.081,1.212,-0.769,17.822,37.598,137.573
-0.231,1.775,-0.477,26.733,47.241,145.020
0.239,1.373,-0.631,27.832,60.120,149.536
0.081,1.589,-0.402,34.058,70.740,156.738
0.397,1.701,-0.481,35.706,78.430,162.903
0.517,1.891,-0.477,42.786,84.412,170.593
0.859,1.851,-0.735,39.978,85.327,181.885
0.889,2.086,-0.666,38.391,85.022,194.641
0.973,2.008,-0.762,30.090,84.961,204.712
0.876,2.113,-0.637,31.128,92.651,215.820
1.305,1.768,-0.566,16.785,89.233,221.802
0.474,2.043,-0.505,11.047,80.750,229.858
0.634,1.892,-0.571,4.150,70.313,222.717
0.048,2.004,-0.713,10.010,55.420,225.647
0.273,1.736,-0.879,14.038,42.236,214.722
0.704,1.535,-0.900,15.137,28.992,199.646
0.859,1.319,-0.639,15.930,31.799,176.880
0.980,1.103,-0.480,17.700,31.494,153.687
0.741,0.753,-0.431,16.907,29.053,132.141
-0.198,0.500,-0.156,10.193,28.931,119.568
-0.377,0.434,-0.494,9.766,14.648,103.027
0.490,0.456,-0.284,17.029,-10.193,64.331
0.763,0.462,-0.259,19.714,-38.208,33.813
0.775,0.667,-0.027,17.822,-56.091,14.465
-0.179,0.604,-0.567,2.319,-55.420,12.146
0.227,0.561,-0.304,12.756,-46.692,-16.663
0.519,0.222,-0.184,23.193,-34.851,-55.725
0.599,-0.002,-0.149,25.879,-23.193,-88.745
0.499,-0.001,-0.153,23.560,-10.681,-115.295
0.447,0.114,-0.206,23.804,-10.193,-133.667
0.364,0.226,-0.216,23.743,-12.939,-150.818
0.262,0.310,-0.263,23.437,-13.794,-169.678
0.179,0.383,-0.290,24.597,-13.489,-187.622
0.095,0.450,-0.307,25.513,-11.597,-203.247
0.076,0.498,-0.288,27.100,-12.512,-219.543
0.113,0.505,-0.277,27.344,-14.160,-234.497
0.145,0.531,-0.268,25.269,-16.663,-249.573
0.164,0.553,-0.282,21.301,-19.409,-262.756
0.209,0.563,-0.274,16.724,-22.095,-272.644
0.223,0.605,-0.284,11.230,-24.719,-284.180
0.252,0.688,-0.303,5.371,-31.372,-293.579
0.244,0.741,-0.343,-0.610,-36.499,-301.025
0.316,0.769,-0.354,-9.705,-41.992,-309.509

0.497,1.174,-0.310,9.399,47.607,91.919
-0.491,1.047,-0.614,3.296,36.682,108.459
0.298,1.271,-0.123,10.071,35.034,109.497
-0.098,1.272,-0.498,6.042,25.818,119.507
-0.070,1.435,-0.304,11.902,27.466,121.033
-0.037,1.323,-0.721,10.925,27.100,126.404
0.237,1.595,-0.485,19.348,37.720,125.671
-0.259,1.359,-0.993,16.846,44.067,132.874
0.356,1.437,-0.488,24.841,60.913,130.798
-0.575,1.467,-0.930,20.020,63.232,144.592
0.527,1.645,-0.141,35.095,84.595,137.878
-0.387,1.462,-0.843,26.611,79.224,155.090
0.708,1.918,-0.049,39.124,92.163,156.555
-0.003,1.953,-0.757,35.156,87.524,173.401
0.845,1.961,-0.406,41.565,97.351,179.077
0.768,2.139,-0.766,36.438,93.750,196.777
1.181,1.916,-0.663,33.264,99.365,205.994
1.266,1.832,-0.533,20.630,97.046,210.144
0.945,1.815,-0.481,8.179,96.069,210.205
0.601,1.967,-0.549,4.761,93.201,209.961
0.396,1.924,-0.613,8.911,87.585,208.252
0.033,1.932,-0.736,12.512,74.341,205.505
0.197,1.734,-0.863,17.334,64.453,193.237
0.748,1.491,-0.870,20.508,56.335,175.903
1.028,1.192,-0.747,21.484,46.753,157.104
0.841,0.928,-0.405,22.522,48.767,137.939
0.488,0.646,-0.289,15.869,50.232,123.596
-0.899,0.429,-0.400,2.625,50.293,120.728
-0.348,0.487,-0.465,7.751,34.424,96.558
0.387,0.401,-0.343,10.620,10.681,58.838
0.691,0.592,-0.178,14.709,-8.301,28.259
0.012,0.693,-0.070,8.728,-14.160,18.921
-0.238,0.669,-0.491,2.441,-13.306,15.747
0.295,0.476,-0.216,13.489,-8.057,-16.113
0.554,0.171,-0.151,21.606,-4.883,-49.072
0.612,0.018,-0.121,23.743,-1.831,-76.233
0.579,0.011,-0.159,20.264,-6.775,-99.243
0.516,0.054,-0.180,14.893,-19.958,-117.310
0.433,0.185,-0.196,10.498,-34.485,-134.338
0.299,0.331,-0.199,8.240,-44.556,-152.283
0.136,0.447,-0.206,8.118,-48.279,-170.593
0.068,0.507,-0.214,8.972,-48.950,-187.683
0.028,0.547,-0.191,10.193,-47.485,-202.087
0.031,0.568,-0.163,12.207,-45.288,-213.989
0.044,0.584,-0.171,13.733,-43.457,-225.037
0.051,0.587,-0.186,14.221,-42.419,-236.572
0.086,0.587,-0.213,13.977,-43.274,-248.535
0.146,0.574,-0.244,11.353,-46.997,-259.888
0.204,0.588,-0.272,6.958,-52.185,-271.240
0.206,0.629,-0.309,1.404,-57.190,-282.349
0.186,0.682,-0.353,-4.822,-60.425,-292.664
0.195,0.761,-0.375,-10.071,-62.073,-303.345
0.212,0.834,-0.400,-14.160,-61.462,-313.049
0.229,0.928,-0.410,-17.883,-58.960,-321.716
0.265,1.013,-0.438,-24.597,-58.838,-329.224
0.233,1.233,-0.453,-28.503,-55.115,-335.144
0.171,1.435,-0.465,-29.968,-47.363,-341.370
0.148,1.573,-0.470,-31.982,-37.842,-348.816
0.134,1.698,-0.478,-36.316,-28.809,-354.553
0.101,1.903,-0.544,-42.175,-25.513,-359.497
0.031,2.185,-0.608,-45.044,-26.184,-363.098
-0.105,2.321,-0.572,-46.082,-27.466,-363.464
-0.329,2.438,-0.539,-46.936,-27.466,-358.948
-0.560,2.565,-0.548,-48.401,-29.053,-348.206
-0.759,2.661,-0.561,-48.523,-33.325,-331.482
-0.976,2.582,-0.729,-49.866,-40.894,-306.030
-1.107,2.348,-0.749,-55.298,-48.401,-271.667
-1.105,2.250,-0.703,-57.861,-62.988,-233.887
-1.085,2.141,-0.817,-49.316,-57.800,-191.223
-1.606,1.896,-0.627,-57.495,-65.735,-165.710
-1.966,1.854,-0.558,-52.002,-65.186,-125.854
-2.326,1.740,-0.273,-30.029,-24.475,-66.589
-2.022,1.510,-0.018,-15.137,5.188,-13.550
-1.379,1.274,0.040,-10.010,-0.183,38.452
-0.873,1.354,-0.210,-1.892,-12.146,87.219
-0.814,1.346,-0.302,-1.831,-35.461,119.385
-0.866,1.161,-0.377,-12.207,-57.373,136.902
-0.922,1.347,-0.260,-14.160,-67.627,160.461
-0.810,1.149,-0.366,-15.259,-68.420,167.908
0.115,1.269,-0.401,-5.615,-79.102,165.100
2.427,0.682,-1.058,-12.451,-77.576,118.591
2.576,0.834,-0.526,-17.273,-24.963,82.703
0.924,1.451,0.568,0.732,0.671,109.314
-0.842,1.501,0.183,9.094,-36.560,171.021
-0.769,1.568,-0.027,-9.644,-76.660,185.974
-0.236,1.989,-0.081,-12.268,-77.087,181.702
-0.052,1.668,-0.287,-21.179,-76.416,174.561
0.409,1.297,-0.764,-34.607,-70.068,172.546
-0.679,1.300,-0.262,-32.410,-41.260,172.913
0.067,1.343,-0.316,-12.146,-18.372,163.025
-0.908,0.722,-0.250,-23.071,2.441,155.212
0.154,0.989,-0.625,-26.367,-6.165,147.461
-0.771,0.499,-1.171,-45.532,-7.080,141.602
-0.123,1.226,-0.578,-37.903,3.601,121.277
-0.540,1.307,-0.528,-27.405,40.100,104.736
0.081,1.211,-0.288,-9.094,63.354,89.600
-0.253,1.015,-0.604,-20.203,75.439,80.994
0.102,1.320,-0.216,-4.761,74.829,75.989
0.194,1.026,-0.270,0.305,67.688,66.162
-0.057,0.806,-0.187,-9.583,60.059,61.096
0.120,1.314,-0.357,-7.874,53.284,55.969
0.101,0.837,-0.241,-8.240,44.983,44.189
-0.068,1.133,-0.381,-7.141,42.419,43.945
0.195,0.827,-0.404,-5.798,37.720,30.396
0.106,1.020,-0.378,-2.930,33.264,27.405
0.333,0.689,-0.423,-2.991,27.344,19.043
-0.060,1.128,-0.423,-0.183,25.208,17.029
0.308,0.624,-0.453,-3.662,25.757,10.315
-0.440,1.245,-0.359,-0.916,29.602,17.395
0.909,0.642,-0.343,2.441,30.762,0.916
-0.916,1.016,-0.444,-9.460,30.457,24.109
0.787,0.841,-0.270,6.531,31.860,7.202
-0.531,0.985,-0.401,-9.644,28.992,25.879
0.699,0.651,-0.393,3.906,30.457,11.292
-0.072,0.919,-0.386,-7.996,30.334,23.010
0.241,0.779,-0.393,-0.061,31.677,17.578
0.196,0.890,-0.376,-5.554,31.494,22.888
0.128,0.942,-0.383,-3.479,31.677,22.644
-0.058,0.940,-0.380,-4.333,33.325,25.635
0.349,0.835,-0.325,-5.493,32.410,22.583
-0.523,1.092,-0.387,-6.226,32.410,33.264
0.238,0.856,-0.319,-2.747,35.950,23.743
-0.205,1.029,-0.315,-5.859,36.377,32.288
0.059,0.905,-0.379,-2.319,39.429,28.076
-0.037,0.886,-0.415,-5.615,37.354,34.119
0.524,0.934,-0.316,-1.038,38.574,30.090
-0.144,0.813,-0.518,-7.263,31.982,42.664
0.706,0.869,-0.325,-0.244,31.921,42.236
-0.536,0.894,-0.576,-10.315,23.132,64.148
0.818,1.047,-0.148,7.202,31.372,56.885
-0.572,0.596,-0.912,-15.808,19.897,80.139
0.534,1.540,0.065,10.864,32.227,75.928
-0.805,0.828,-0.885,-7.507,26.001,94.666
0.554,1.201,-0.110,15.686,39.856,85.083
-0.082,1.093,-0.650,4.150,34.668,99.487
0.044,1.080,-0.286,10.986,39.185,98.206
0.202,1.104,-0.475,7.019,33.630,106.812
0.090,1.320,-0.231,8.240,28.809,109.985
-0.035,1.355,-0.404,9.521,24.536,117.249
0.292,1.235,-0.373,9.521,20.386,121.216
-0.548,1.708,-0.521,13.611,17.395,134.033
0.289,1.275,-0.567,18.005,27.405,132.935
-0.255,1.550,-0.851,21.362,31.738,144.287
0.169,1.461,-0.541,24.109,49.072,146.484
-0.069,1.536,-0.774,25.208,56.091,154.785
0.556,1.493,-0.471,25.757,69.641,154.724
0.130,1.820,-0.582,27.771,75.684,162.537
0.586,1.686,-0.525,25.696,88.196,165.955
0.103,2.177,-0.600,31.311,95.947,177.429
1.249,2.041,-0.568,34.119,109.375,180.420
0.347,2.197,-0.975,30.884,109.863,207.031
1.256,1.863,-0.671,24.353,119.568,209.045
0.735,2.164,-0.502,17.395,115.417,216.858
1.006,1.824,-0.531,9.949,114.563,208.984
0.597,1.981,-0.588,12.024,103.394,213.379
0.352,1.798,-0.618,14.099,89.905,207.153
0.294,1.662,-0.938,12.756,67.078,198.120
0.525,1.552,-0.841,16.541,56.519,181.152
0.800,1.302,-0.717,18.066,52.429,161.682
0.976,0.945,-0.727,15.198,40.588,142.700
0.695,0.743,-0.315,11.719,38.818,120.850
-0.320,0.455,-0.276,4.333,40.405,106.995
-0.674,0.305,-0.519,2.197,31.921,91.980
0.271,0.418,-0.343,9.521,10.193,56.030
0.659,0.474,-0.201,15.930,-13.123,24.170
0.316,0.653,0.067,12.268,-23.926,8.972
-0.299,0.661,-0.478,2.014,-23.560,8.118
0.212,0.534,-0.232,12.695,-17.395,-23.010
0.482,0.182,-0.177,21.606,-10.803,-55.054
0.569,-0.000,-0.130,24.597,-5.127,-79.407
0.531,-0.011,-0.158,22.461,-6.348,-104.065
0.438,0.041,-0.187,18.311,-12.451,-123.962
0.367,0.158,-0.211,14.832,-18.982,-142.517
0.267,0.251,-0.236,12.207,-24.963,-161.072
0.157,0.289,-0.276,9.644,-27.832,-178.833
0.109,0.347,-0.281,7.751,-28.503,-196.228
0.094,0.394,-0.263,5.981,-28.748,-212.341
0.103,0.444,-0.252,4.456,-30.457,-226.624
0.102,0.493,-0.257,3.174,-31.006,-239.868
0.108,0.529,-0.267,2.014,-29.358,-251.648
0.128,0.563,-0.252,0.305,-27.405,-261.719
0.172,0.601,-0.243,-3.174,-28.259,-270.813
0.224,0.650,-0.266,-7.690,-32.349,-279.480
0.247,0.707,-0.305,-13.794,-38.147,-288.574
0.239,0.763,-0.336,-20.264,-42.175,-296.875
0.306,0.751,-0.358,-30.273,-46.448,-307.007
0.389,0.866,-0.381,-40.161,-54.871,-316.101
0.367,1.038,-0.419,-45.837,-61.584,-322.021
0.285,1.232,-0.429,-47.974,-61.401,-326.660
0.247,1.376,-0.437,-51.086,-58.777,-333.435
0.266,1.530,-0.422,-53.528,-54.810,-339.600
0.311,1.686,-0.454,-57.739,-56.458,-343.567
0.274,1.855,-0.530,-64.148,-63.965,-345.398
0.244,2.098,-0.572,-67.017,-76.294,-345.154
0.099,2.269,-0.516,-64.636,-83.801,-343.872
-0.188,2.417,-0.465,-61.707,-85.327,-343.079
-0.499,2.572,-0.421,-56.580,-79.163,-339.417
-0.794,2.750,-0.387,-50.293,-67.932,-330.994
-1.002,2.843,-0.457,-43.701,-57.922,-318.237
-1.136,2.683,-0.597,-41.321,-47.485,-296.753
-1.094,2.347,-0.549,-44.922,-48.157,-263.733
-1.174,2.213,-0.694,-43.396,-64.209,-224.792
-1.624,2.081,-0.820,-40.527,-68.481,-185.974
-2.413,1.855,-0.802,-50.476,-67.383,-158.569
-2.879,1.715,-0.709,-29.358,-41.443,-80.017
-2.255,1.142,-0.422,-11.963,-17.761,4.578
-1.317,0.892,-0.305,-14.160,-23.071,70.740
-0.618,1.143,-0.555,-22.949,-42.358,115.112
-0.396,1.368,-0.588,-33.875,-67.749,126.282
-0.551,1.443,-0.482,-31.738,-87.646,139.587
-0.977,1.377,-0.263,-24.841,-85.999,148.804
-1.306,1.337,-0.010,-15.503,-61.523,164.856
-0.474,1.313,-0.170,-2.441,-29.480,153.198
2.046,1.374,-0.083,18.982,-18.494,104.736
2.014,1.095,0.008,19.043,5.676,97.351
0.884,1.282,0.287,10.437,8.545,130.127
0.077,1.189,-0.093,-8.301,-44.556,165.649
-0.250,1.261,-0.604,-34.119,-99.731,198.242
-0.121,1.983,-0.371,-38.330,-114.380,203.491
-0.568,1.922,-0.184,-35.706,-105.591,192.322
0.070,1.409,-0.744,-37.476,-93.689,180.481
-0.187,1.006,-0.273,-41.504,-63.965,167.542
-0.465,1.102,-0.395,-34.424,-37.781,165.466
-0.804,0.720,-0.673,-42.725,-27.405,158.325
-0.056,0.982,-0.940,-37.781,-27.954,137.146
-0.643,1.140,-0.315,-15.930,23.132,114.441
-0.329,1.098,-0.111,-11.353,43.457,102.417
-0.994,1.074,-0.716,-25.513,79.651,98.267
0.838,1.499,-0.181,1.648,92.590,78.186
-1.080,0.830,-0.666,-22.400,102.539,80.627
0.824,1.340,-0.151,3.662,87.769,71.106
-0.548,0.841,-0.662,-14.343,80.383,67.932
1.094,0.918,-0.116,0.549,57.495,51.697
-0.094,0.852,-0.421,-19.897,48.340,51.941
0.556,1.075,-0.317,-6.226,36.865,42.297
-0.048,0.980,-0.426,-11.169,34.424,38.635
0.313,1.066,-0.351,-2.502,33.569,30.884
0.033,0.918,-0.423,-4.517,29.663,20.081

0.328,1.210,-0.461,-46.326,-52.490,-324.402
0.285,1.404,-0.463,-50.171,-49.744,-328.064
0.276,1.562,-0.452,-53.101,-47.791,-331.543
0.241,1.692,-0.479,-57.068,-46.143,-335.022
0.252,1.846,-0.552,-63.110,-51.453,-338.074
0.291,2.044,-0.649,-69.763,-66.895,-339.783
0.114,2.226,-0.645,-71.411,-79.407,-337.830
-0.209,2.363,-0.566,-68.115,-81.421,-336.243
-0.483,2.441,-0.493,-62.805,-75.684,-331.848
-0.741,2.540,-0.457,-57.068,-66.772,-324.097
-0.941,2.587,-0.525,-50.842,-59.326,-309.998
-0.969,2.486,-0.676,-47.852,-54.260,-288.086
-0.853,2.300,-0.671,-47.974,-59.265,-258.240
-0.954,2.167,-0.873,-46.204,-74.463,-227.112
-1.339,1.965,-0.974,-42.419,-63.232,-198.425
-2.127,1.905,-0.874,-48.096,-47.363,-182.556
-2.680,1.889,-0.512,-30.396,-10.071,-129.333
-2.436,1.467,-0.131,-7.874,36.377,-56.519
-1.564,1.141,-0.189,-3.967,51.270,1.099
-0.829,1.212,-0.309,-9.399,39.368,50.110
-0.711,1.354,-0.470,-11.536,22.217,80.872
-0.644,1.307,-0.325,-13.611,-1.648,100.342
-0.815,1.196,-0.273,-17.151,-32.349,132.690
-1.010,1.290,-0.181,-20.569,-41.199,153.809
-0.813,1.422,-0.272,-18.311,-47.974,165.161
-0.140,1.596,-0.016,-5.554,-47.363,156.738
1.489,0.884,-0.601,-6.226,-52.917,121.704
2.534,0.750,-0.646,-12.329,-29.602,83.801
1.598,1.293,0.283,-4.822,2.136,95.032
0.324,1.490,0.500,1.648,-30.518,151.428
-0.204,1.355,-0.091,-12.146,-88.196,188.843
-0.032,1.672,0.112,-22.339,-117.676,192.993
-0.678,1.627,-0.551,-31.860,-121.521,190.857
0.066,1.596,-0.138,-29.541,-112.061,176.575
-0.784,1.103,-0.975,-47.974,-80.933,179.810
-0.659,1.667,0.168,-24.658,-44.922,167.969
-0.366,1.185,-0.514,-15.991,2.319,158.081
-0.289,0.794,-0.349,-16.113,20.996,141.602
-0.025,0.741,-0.733,-19.409,26.917,128.906
-0.402,0.660,-0.763,-32.166,32.410,117.249
-0.203,1.205,-0.714,-27.527,41.626,100.464
-0.249,1.335,-0.420,-6.836,55.481,86.365
0.327,1.075,-0.358,-2.319,47.363,77.820
-0.388,1.080,-0.772,-13.977,43.945,79.224
0.329,1.214,-0.190,3.174,29.724,70.374
-0.326,0.964,-0.446,-7.568,29.236,70.251
0.184,1.054,-0.344,-1.587,37.903,58.228
-0.208,0.941,-0.431,-10.376,46.021,48.279
0.677,1.146,-0.173,0.671,48.401,36.072
-0.195,0.906,-0.440,-5.432,43.823,32.715
0.680,0.903,-0.202,4.150,34.729,22.583
-0.656,0.956,-0.489,-6.531,32.776,27.649
1.020,0.857,-0.338,10.681,27.405,6.714
-1.147,0.704,-0.570,-13.306,28.381,24.780
0.933,1.129,-0.294,11.658,28.931,7.080
-0.859,0.687,-0.593,-11.658,29.114,19.775
0.804,0.967,-0.231,9.277,33.875,4.517
-0.197,0.768,-0.411,-7.629,35.645,13.916
0.397,0.809,-0.305,1.526,39.551,8.850
0.148,0.824,-0.381,-6.287,37.537,15.137
0.292,0.885,-0.299,-4.211,38.147,17.456
0.060,0.891,-0.379,-5.310,33.569,24.414
0.491,0.853,-0.279,-6.226,33.447,23.193
-0.383,0.975,-0.439,-10.376,29.602,36.743
0.364,0.879,-0.284,-3.540,32.654,30.518
-0.098,0.977,-0.348,-8.667,28.015,40.710
0.087,0.853,-0.431,-4.333,32.104,39.063
0.025,0.861,-0.480,-7.324,31.921,41.199
0.479,0.933,-0.317,-4.272,35.828,35.461
-0.188,0.900,-0.568,-9.705,33.447,41.016
0.458,0.991,-0.307,-3.845,36.804,33.325
-0.700,1.043,-0.580,-11.108,31.494,46.875
0.783,1.090,-0.107,7.507,41.687,32.043
-0.737,0.572,-0.845,-16.235,28.076,56.946
0.774,1.250,0.035,6.409,32.959,47.119
-0.784,0.769,-0.781,-12.634,21.973,70.862
0.817,0.805,-0.229,3.479,30.212,57.800
-0.200,1.127,-0.582,-7.324,24.780,74.341
0.136,0.945,-0.450,0.427,34.241,70.313
0.102,1.030,-0.467,-0.122,34.058,81.177
0.168,1.119,-0.446,3.601,37.048,82.397
0.075,1.155,-0.499,6.592,37.842,89.233
0.154,1.037,-0.587,4.089,36.072,93.689
-0.383,1.569,-0.346,10.071,36.438,104.187
0.314,1.164,-0.437,10.437,40.222,103.638
-0.323,1.429,-0.417,12.329,36.926,115.540
0.215,1.365,-0.248,13.306,40.588,119.080
-0.199,1.494,-0.530,16.296,38.086,125.061
0.460,1.369,-0.390,18.677,44.189,124.939
-0.217,1.656,-0.635,21.790,45.227,131.897
0.273,1.345,-0.550,22.278,53.650,134.827
-0.419,1.783,-0.618,28.625,57.617,144.592
0.883,1.437,-0.358,31.433,72.998,140.564
-0.568,1.845,-0.823,33.142,73.364,157.288
0.913,1.506,-0.416,36.377,91.614,158.752
0.217,2.144,-0.531,39.307,89.844,177.917
1.150,1.908,-0.552,35.889,94.482,184.265
0.663,2.106,-0.718,33.936,91.980,201.050
1.300,1.893,-0.560,23.987,100.342,204.956
1.004,1.935,-0.484,14.954,96.069,211.121
1.012,1.879,-0.567,5.066,92.957,208.557
0.619,2.042,-0.612,6.409,88.318,207.214
0.394,1.879,-0.647,8.118,77.698,201.599
0.068,1.734,-0.847,10.742,59.937,198.242
0.324,1.486,-0.731,14.587,55.786,187.927
0.864,1.254,-0.655,17.334,49.194,168.945
0.934,0.936,-0.598,16.846,40.161,145.386
0.820,0.638,-0.462,15.381,31.189,122.131
-0.182,0.350,-0.230,9.644,33.752,107.178
-0.403,0.220,-0.524,4.395,27.222,89.294
0.134,0.410,-0.282,9.277,8.606,53.345
0.438,0.488,-0.272,13.245,-12.695,25.696
0.018,0.633,-0.143,8.850,-23.621,13.428
0.039,0.693,-0.478,7.446,-29.358,3.357
0.432,0.480,-0.244,19.043,-28.870,-27.588
0.527,0.181,-0.187,26.672,-25.330,-54.565
0.445,0.015,-0.138,29.480,-18.188,-76.904
0.357,-0.004,-0.183,29.114,-13.855,-100.464
0.330,0.028,-0.211,27.222,-14.038,-120.728
0.283,0.103,-0.231,23.987,-16.541,-139.343
0.241,0.209,-0.243,21.606,-21.484,-157.043
0.179,0.314,-0.268,20.569,-26.306,-173.767
0.136,0.416,-0.283,20.386,-29.419,-189.819
0.152,0.484,-0.279,20.630,-34.729,-202.942
0.148,0.527,-0.270,20.203,-41.016,-214.600
0.083,0.557,-0.289,19.348,-42.908,-226.685
0.049,0.598,-0.312,19.043,-39.856,-239.502
0.076,0.617,-0.314,18.127,-34.790,-252.014
0.163,0.656,-0.317,15.320,-33.081,-262.512
0.263,0.688,-0.346,9.033,-36.926,-272.156
0.334,0.747,-0.383,1.648,-44.006,-281.067
0.317,0.813,-0.418,-6.226,-48.157,-288.696
0.296,0.890,-0.419,-13.611,-47.913,-296.448
0.352,0.985,-0.444,-22.095,-50.842,-303.528
0.305,1.119,-0.469,-28.381,-53.772,-307.373
0.186,1.254,-0.463,-33.691,-50.720,-311.035
0.137,1.403,-0.466,-37.354,-44.067,-315.979
0.124,1.549,-0.489,-39.246,-37.842,-320.618
0.133,1.656,-0.515,-43.701,-35.217,-324.219
0.129,1.744,-0.577,-52.307,-38.940,-328.003
0.132,1.965,-0.682,-60.303,-49.133,-332.031
0.046,2.147,-0.643,-61.096,-59.631,-333.008
-0.122,2.185,-0.573,-59.143,-69.519,-330.139
-0.384,2.201,-0.475,-59.509,-73.669,-322.083
-0.641,2.264,-0.432,-59.387,-74.890,-309.875
-0.829,2.398,-0.467,-55.786,-74.402,-297.180
-0.943,2.445,-0.639,-51.025,-71.106,-281.311
-0.866,2.316,-0.557,-48.828,-70.190,-258.179
-0.825,2.187,-0.601,-45.044,-80.505,-232.483
-0.940,1.965,-0.711,-40.039,-80.200,-203.064
-1.413,1.844,-0.658,-43.213,-68.481,-185.120
-1.878,1.862,-0.537,-44.617,-65.979,-156.433
-2.266,1.734,-0.356,-25.391,-31.067,-97.961
-2.083,1.510,-0.082,-9.583,0.427,-37.170
-1.520,1.253,-0.068,-3.601,8.240,17.273
-0.951,1.231,-0.234,-2.930,0.061,62.927
-0.935,1.345,-0.330,-5.310,-7.874,89.294
-0.882,1.310,-0.354,-5.676,-32.410,119.873
-1.021,1.229,-0.327,-7.141,-42.175,143.555
-0.992,1.273,-0.360,-10.437,-52.429,160.278
-1.028,1.319,-0.415,-8.545,-48.279,169.922
0.540,1.130,-0.699,-5.249,-35.706,135.925
2.349,0.821,-0.861,-3.479,-21.790,88.013
2.283,0.720,-0.594,-8.484,11.536,76.233
0.736,1.344,0.383,-0.427,22.095,106.873
-0.758,1.451,0.057,-3.723,-17.944,153.259
-0.685,1.842,-0.033,-4.883,-46.753,174.255
0.002,2.242,0.040,2.380,-53.406,175.476
0.300,1.485,-0.363,-18.250,-67.139,171.936
0.475,1.287,-0.788,-34.241,-65.308,169.617
-0.790,1.420,-0.197,-26.001,-34.973,171.814
0.127,1.270,-0.123,-6.592,-1.160,155.762
-0.932,0.499,-0.405,-30.396,11.658,147.034
0.203,0.849,-0.704,-32.837,3.174,140.259
-0.696,0.521,-1.354,-48.950,-0.488,127.991
0.020,1.221,-0.351,-25.879,11.658,101.563
-0.394,1.215,-0.456,-14.709,40.405,88.928
0.072,1.120,-0.412,-6.836,53.772,80.566
-0.106,1.199,-0.526,-11.414,60.547,75.562
0.067,1.345,-0.227,0.061,60.059,73.364
0.223,1.052,-0.316,1.343,60.486,64.270
-0.234,0.840,-0.284,-9.766,56.946,60.242
0.201,1.351,-0.288,-1.831,49.622,55.664
0.111,0.780,-0.277,-4.456,41.016,44.006
0.009,1.131,-0.316,-2.991,34.973,45.654
0.217,0.830,-0.406,-2.747,28.320,34.424
0.040,1.065,-0.326,1.099,28.870,29.236
0.339,0.659,-0.374,-0.305,24.719,20.325
0.085,1.113,-0.332,2.075,24.475,18.066
0.293,0.598,-0.451,-2.747,21.484,13.245
-0.380,1.260,-0.350,2.014,21.606,19.531
0.886,0.594,-0.341,2.808,20.874,5.432
-0.767,1.061,-0.443,-5.981,21.484,24.719
0.742,0.727,-0.290,4.456,20.264,10.193
-0.492,1.182,-0.390,-6.897,20.874,27.893
0.553,0.613,-0.355,2.991,21.362,14.160
0.076,1.003,-0.365,-6.348,24.109,23.743
0.204,0.713,-0.346,-2.014,26.062,16.724
0.149,0.954,-0.405,-6.897,26.306,23.315
0.171,0.890,-0.323,-5.127,27.222,21.667
0.048,0.931,-0.348,-5.859,28.137,24.963
0.324,0.768,-0.309,-8.545,27.222,23.499
-0.468,1.099,-0.424,-9.827,26.611,32.227
0.174,0.806,-0.274,-7.324,28.259,25.818
-0.101,1.039,-0.417,-8.972,26.978,31.921
0.056,0.886,-0.374,-7.141,31.006,27.222
-0.082,0.918,-0.458,-9.644,30.762,32.104
0.454,0.918,-0.274,-5.432,32.959,28.015
-0.097,0.778,-0.523,-12.512,28.503,40.222
0.643,0.837,-0.304,-7.385,31.067,39.001
-0.469,0.879,-0.593,-14.404,26.306,62.256
0.771,1.043,-0.127,-0.305,32.288,54.810
-0.480,0.647,-0.901,-17.822,22.644,80.811
0.600,1.428,-0.102,1.465,33.386,71.106
-0.872,1.068,-0.805,-11.047,33.264,92.346
0.617,1.124,-0.166,8.057,47.485,78.796
-0.254,1.232,-0.635,1.770,43.701,95.337
0.244,0.958,-0.296,8.850,49.377,90.088
0.087,1.185,-0.592,7.568,41.565,98.877
0.153,1.214,-0.322,9.094,40.161,101.257
-0.201,1.347,-0.491,11.841,37.292,105.225
0.300,1.145,-0.418,12.024,38.086,107.605
-0.602,1.668,-0.507,16.113,38.696,118.103
0.225,1.207,-0.475,19.165,46.692,117.126
-0.289,1.621,-0.603,27.649,48.828,126.648
0.277,1.406,-0.473,31.738,59.875,132.080
-0.084,1.508,-0.708,36.011,64.331,139.404
0.552,1.333,-0.562,37.109,78.613,141.296
0.161,1.734,-0.605,38.025,87.524,149.963
0.719,1.521,-0.553,35.828,98.999,156.128
0.247,2.176,-0.393,43.030,103.027,169.434
1.336,1.882,-0.344,44.006,110.229,174.561
0.269,2.341,-0.691,40.283,100.342,200.989
1.379,1.813,-0.561,30.945,103.088,210.327
0.774,2.134,-0.421,25.940,95.276,223.511
1.257,1.893,-0.396,16.663,90.759,220.581
0.765,1.973,-0.539,11.841,77.759,225.464
0.664,1.853,-0.638,12.817,66.528,219.238

0.968,0.514,-0.502,-8.362,52.490,22.461
0.475,1.007,-0.286,4.639,50.110,15.625
0.035,0.775,-0.448,-4.333,47.424,10.925
0.160,0.935,-0.380,-1.099,46.143,10.681
-0.069,0.848,-0.441,-3.113,44.250,9.277
0.529,0.923,-0.367,0.427,43.457,4.761
-0.447,0.834,-0.486,-6.104,38.696,18.677
0.443,1.016,-0.308,5.127,40.100,10.986
0.023,0.736,-0.353,-4.639,34.851,19.470
0.127,0.899,-0.393,0.000,36.438,22.339
0.175,0.795,-0.411,-3.601,33.508,22.522
0.371,0.937,-0.321,0.244,36.133,23.682
0.170,0.723,-0.445,-5.249,33.691,27.344
0.278,1.098,-0.292,0.732,37.659,27.832
-0.105,0.686,-0.494,-8.057,32.715,34.851
-0.043,1.289,-0.236,5.371,39.307,34.668
0.443,0.431,-0.515,-8.362,35.645,32.104
-0.445,1.565,-0.257,0.977,33.875,46.204
0.058,0.338,-0.652,-7.935,31.738,39.307
0.173,1.680,-0.081,5.920,30.823,46.448
0.093,0.390,-0.644,-6.409,29.053,39.795
0.196,1.284,-0.287,3.967,26.184,44.678
0.009,0.734,-0.452,-4.822,26.489,39.795
0.068,1.034,-0.432,-1.526,25.085,43.701
-0.071,0.874,-0.496,-4.028,27.161,46.265
0.422,1.010,-0.331,-0.244,29.175,49.561
-0.478,0.886,-0.640,-6.042,26.489,66.284
0.404,1.026,-0.229,5.798,33.142,67.383
-0.025,0.989,-0.521,-0.122,31.433,80.811
-0.012,1.144,-0.357,7.141,36.255,84.229
-0.001,1.036,-0.532,5.188,37.354,92.224
0.373,1.267,-0.331,12.634,42.542,90.088
-0.177,0.960,-0.594,5.981,39.917,100.037
0.482,1.227,-0.163,13.123,40.955,99.487
-0.531,1.156,-0.596,5.188,30.273,116.577
0.624,1.435,0.110,19.714,36.255,109.558
-0.645,0.973,-1.005,2.197,19.531,130.066
0.482,1.726,0.247,20.264,30.518,125.732
-0.780,1.457,-1.119,10.864,24.963,140.381
0.387,1.332,-0.228,26.855,44.983,134.338
-0.137,1.602,-0.871,25.513,48.035,145.996
0.278,1.370,-0.342,29.358,64.575,146.240
0.115,1.589,-0.642,31.006,66.467,155.640
0.493,1.588,-0.419,32.898,76.355,158.508
0.462,1.896,-0.504,38.086,82.092,167.175
0.620,1.744,-0.600,34.729,87.646,178.406
0.503,2.197,-0.648,35.828,87.585,195.312
0.984,2.189,-0.765,30.945,91.675,204.529
0.897,2.254,-0.726,30.334,101.807,218.384
1.305,2.017,-0.579,20.081,104.736,219.360
0.951,2.039,-0.573,10.925,97.717,221.069
0.788,2.015,-0.657,8.545,90.637,216.431
0.285,2.035,-0.716,14.099,79.041,214.478
0.307,1.691,-0.889,12.512,61.646,202.820
0.476,1.580,-0.831,13.977,51.819,183.960
0.832,1.254,-0.717,18.433,54.871,161.560
1.017,0.903,-0.695,18.005,50.354,136.780
0.710,0.647,-0.337,14.404,54.810,115.479
-0.465,0.334,-0.327,2.380,62.256,106.384
-0.707,0.309,-0.515,1.038,55.359,92.102
0.199,0.389,-0.373,8.423,32.227,52.490
0.700,0.535,-0.166,16.663,3.723,21.240
-0.089,0.601,-0.068,7.385,-9.583,13.489
-0.219,0.654,-0.582,-1.343,-18.127,10.498
0.355,0.482,-0.245,10.437,-17.944,-22.827
0.524,0.144,-0.188,18.005,-19.653,-51.697
0.506,-0.021,-0.152,19.287,-17.273,-77.087
0.463,-0.004,-0.185,17.578,-17.944,-99.548
0.416,0.043,-0.189,14.404,-26.245,-118.896
0.331,0.124,-0.202,12.512,-35.583,-136.353
0.243,0.194,-0.232,11.780,-42.908,-156.372
0.137,0.254,-0.262,11.353,-48.462,-177.063
0.028,0.320,-0.268,11.475,-47.913,-196.350
0.008,0.408,-0.254,13.367,-45.715,-212.830
0.021,0.437,-0.251,14.648,-44.861,-227.417
0.042,0.490,-0.271,14.709,-44.495,-240.112
0.058,0.524,-0.300,14.282,-41.809,-252.502
0.110,0.548,-0.289,12.695,-40.161,-263.367
0.128,0.571,-0.289,9.155,-39.612,-272.705
0.150,0.610,-0.299,4.822,-39.795,-281.311
0.196,0.668,-0.304,-0.183,-42.358,-290.405
0.205,0.719,-0.328,-5.859,-44.312,-299.500
0.256,0.718,-0.343,-14.404,-46.631,-308.594
0.364,0.798,-0.360,-24.414,-51.697,-316.528
0.395,0.972,-0.403,-32.898,-59.570,-323.792
0.308,1.151,-0.452,-39.856,-63.782,-331.604
0.177,1.397,-0.469,-42.908,-57.922,-339.722
0.118,1.587,-0.479,-44.983,-46.692,-347.595
0.068,1.746,-0.453,-46.082,-33.142,-352.783
0.060,1.803,-0.460,-51.086,-23.926,-354.248
0.053,1.899,-0.462,-57.556,-21.606,-352.722
0.051,1.957,-0.512,-63.354,-28.992,-346.924
0.023,2.082,-0.542,-69.092,-43.091,-344.482
-0.179,2.357,-0.529,-68.909,-48.889,-342.224
-0.471,2.626,-0.510,-66.650,-45.654,-335.327
-0.794,2.811,-0.559,-61.646,-37.964,-324.768
-1.065,2.607,-0.580,-59.265,-32.715,-304.138
-1.014,2.363,-0.553,-59.509,-35.950,-270.813
-1.007,2.201,-0.572,-58.655,-55.664,-225.464
-1.078,2.016,-0.622,-56.396,-78.857,-176.636
-1.589,1.941,-0.689,-54.260,-82.031,-137.390
-2.421,1.889,-0.456,-57.129,-74.036,-108.582
-2.554,1.741,-0.001,-26.428,-28.809,-28.870
-1.763,1.325,0.126,-14.771,-6.104,31.250
-0.944,1.363,-0.115,-10.071,-9.766,74.524
-0.595,1.490,-0.457,-0.793,-28.381,112.488
-0.489,1.312,-0.391,-3.723,-60.669,137.085
-0.653,1.161,-0.357,-15.381,-82.825,152.710
-1.031,1.211,-0.301,-22.339,-96.497,174.744
-0.578,1.186,-0.433,-22.095,-97.473,175.293
0.909,1.057,-0.596,-15.991,-83.069,136.475
2.394,0.764,-0.939,-18.921,-51.086,89.966
1.798,1.151,-0.194,-6.226,19.226,76.172
0.179,1.662,0.639,15.320,34.424,116.821
-0.697,1.611,0.207,20.447,-9.827,161.621
-0.060,1.592,0.183,4.700,-51.636,171.814
-0.396,1.695,-0.331,-13.672,-71.045,180.725
-0.101,1.657,-0.297,-21.301,-91.431,180.786
0.400,1.198,-0.996,-40.955,-92.041,167.419
-0.329,1.245,-0.120,-33.081,-59.814,154.541
-0.484,1.322,-0.282,-18.738,-25.574,155.701
-0.242,0.962,-0.177,-13.062,-2.502,147.583
0.064,0.834,-0.609,-19.287,-2.869,138.733
-0.200,0.590,-0.912,-25.757,-2.747,129.700
-0.304,0.824,-0.761,-32.959,3.418,112.000
-0.664,1.265,-0.850,-26.184,28.259,99.609
-0.156,1.400,-0.156,-1.465,46.753,85.327
-0.160,1.057,-0.451,-7.812,50.842,80.017
0.094,1.075,-0.328,-6.897,46.875,75.623
0.049,1.093,-0.333,-2.747,46.875,68.909
0.273,0.966,-0.031,-1.282,51.392,57.556
-0.013,0.980,-0.443,-11.902,55.115,50.903
0.299,1.051,-0.066,-7.690,50.964,43.518
-0.359,1.202,-0.527,-11.353,49.683,43.457
0.931,0.851,-0.133,3.052,40.710,25.574
-0.972,0.943,-0.658,-14.832,42.053,38.269
0.695,0.808,-0.265,6.836,38.330,17.944
-0.495,1.076,-0.648,-6.836,41.748,23.621
0.539,0.573,-0.385,7.568,42.419,9.399
0.021,1.075,-0.377,-3.235,45.105,12.329
0.290,0.668,-0.448,1.221,43.823,6.042
0.060,1.017,-0.299,-3.235,43.945,9.766
0.238,0.900,-0.303,-2.136,43.213,9.155
0.224,0.973,-0.287,-2.258,42.542,10.559
0.309,0.710,-0.341,-7.507,37.842,15.381
-0.151,1.167,-0.313,-4.395,33.813,26.306
0.340,0.660,-0.417,-4.517,31.067,21.912
0.018,1.007,-0.335,-5.127,28.259,31.250
0.149,0.824,-0.492,-2.258,31.128,29.846
0.034,0.974,-0.395,-0.427,30.457,34.180
0.437,0.845,-0.343,0.854,31.860,30.212
-0.031,1.046,-0.373,0.061,30.090,35.400
0.347,0.713,-0.390,-1.526,31.372,32.715
-0.537,1.233,-0.357,-1.160,27.588,41.870
0.822,0.751,-0.221,3.967,33.386,28.687
-0.812,1.117,-0.661,-5.066,20.569,51.514
0.624,0.665,-0.280,5.676,26.611,40.649
-0.316,1.384,-0.415,1.404,18.982,59.937
0.520,0.346,-0.458,1.648,25.574,52.795
0.120,1.215,-0.329,0.305,19.348,65.674
0.250,0.797,-0.468,-1.221,21.851,64.758
0.006,1.026,-0.406,-0.916,21.362,73.120
0.037,1.062,-0.515,0.854,24.170,75.867
0.282,1.173,-0.298,4.944,29.358,77.026
-0.397,0.902,-0.630,0.305,27.893,86.792
0.083,1.274,-0.188,9.888,33.386,86.487
-0.001,1.038,-0.549,6.165,33.203,93.323
-0.192,1.240,-0.402,9.949,36.438,96.130
0.182,1.080,-0.425,8.484,36.072,102.295
0.176,1.328,-0.253,11.292,35.828,103.821
0.018,1.112,-0.436,5.920,30.579,112.488
0.370,1.411,-0.104,11.841,29.541,113.464
-0.348,1.229,-0.616,4.639,19.348,127.625
0.199,1.618,-0.153,20.020,29.480,122.498
-0.166,1.079,-0.997,8.606,24.170,137.390
0.113,1.916,-0.177,23.682,39.368,137.085
-0.387,1.346,-1.055,17.334,44.678,150.696
0.419,1.542,-0.316,28.503,62.927,147.705
0.257,1.607,-0.733,26.184,69.458,156.677
0.466,1.645,-0.453,30.457,83.801,158.325
0.533,1.820,-0.645,31.921,87.524,168.945
0.689,1.957,-0.608,32.104,90.210,180.054
0.895,2.182,-0.697,29.297,87.158,192.200
1.012,2.172,-0.704,28.931,89.600,205.994
0.869,2.137,-0.592,24.902,99.121,215.271
0.908,1.857,-0.539,13.184,100.281,213.318
0.494,1.954,-0.516,8.118,97.168,211.914
0.281,1.981,-0.602,12.695,94.727,206.177
0.049,1.864,-0.811,19.348,88.318,198.853
0.481,1.613,-0.875,26.672,86.487,184.387
1.054,1.365,-0.813,28.198,72.021,167.664
1.199,1.065,-0.689,24.475,47.058,148.865
