aX,aY,aZ,gX,gY,gZ
-0.062,0.938,-0.373,4.883,5.127,35.522
-0.062,0.971,-0.358,8.362,10.742,44.312
-0.036,0.973,-0.367,10.010,13.306,49.011
-0.037,0.978,-0.356,11.353,16.174,55.603
-0.016,0.994,-0.340,12.573,20.081,63.416
0.095,0.995,-0.343,14.160,20.996,71.411
0.071,0.964,-0.390,16.541,15.930,78.979
-0.101,0.922,-0.367,17.273,11.841,86.487
-0.204,0.916,-0.285,15.625,14.160,92.102
-0.198,0.937,-0.204,15.320,22.461,94.910
-0.080,0.978,-0.215,17.761,28.992,97.595
-0.057,0.959,-0.261,19.653,30.823,101.257
-0.083,0.962,-0.258,17.151,30.884,104.614
-0.171,0.978,-0.277,12.329,32.104,107.666
-0.235,0.950,-0.316,9.033,34.119,109.802
-0.237,0.898,-0.371,7.202,36.560,110.107
-0.296,0.851,-0.396,8.301,37.903,108.032
-0.491,0.842,-0.354,11.963,40.588,103.455
-0.461,0.849,-0.277,14.099,44.983,98.572
-0.436,0.868,-0.323,17.090,41.321,92.346
-0.562,0.885,-0.294,17.212,36.865,85.449
-0.531,1.014,-0.273,15.076,37.903,79.468
-0.427,1.255,-0.343,13.000,41.504,80.750
-0.291,1.505,-0.324,11.597,44.250,89.783
-0.220,1.594,-0.270,11.414,43.091,111.023
-0.170,1.533,-0.264,14.160,41.992,136.963
-0.114,1.152,-0.206,10.376,37.903,157.043
-0.410,1.001,-0.219,6.226,30.518,166.931
-0.775,0.822,-0.304,4.089,31.921,165.588
-0.939,0.734,-0.278,-2.258,40.100,152.893
-0.816,1.072,-0.263,0.977,46.204,136.780
-0.407,1.681,-0.228,6.592,48.462,136.292
-0.413,1.960,-0.320,4.272,45.776,148.987
-0.616,2.214,-0.407,4.639,50.659,163.452
-0.501,2.345,-0.409,11.658,62.744,181.885
-0.236,2.492,-0.397,16.968,71.411,190.796
0.059,2.597,-0.477,27.161,81.421,191.956
0.250,2.546,-0.508,45.471,97.595,198.730
0.226,1.959,-0.401,49.377,114.807,211.853
0.117,1.328,-0.408,40.405,113.464,192.383
0.306,0.852,-0.594,50.049,85.693,155.762
0.197,0.412,-0.094,69.153,72.083,120.483
-0.273,-0.108,0.005,67.871,67.383,98.389
-0.522,-0.558,-0.254,52.368,59.143,77.881
-0.571,-0.688,-0.212,39.185,55.542,51.514
-0.025,-0.865,-0.392,40.894,42.480,39.185
0.885,-1.112,-0.922,39.246,23.437,33.630
1.898,-1.174,-0.653,20.569,42.603,9.644
2.064,-1.042,0.076,-0.671,62.256,-50.171
1.512,-0.722,0.289,-21.545,27.893,-125.977
1.032,-0.200,0.105,-36.072,-14.282,-152.405
0.604,0.060,-0.095,-47.852,-44.373,-155.457
0.463,0.173,-0.365,-53.223,-60.974,-161.865
0.340,0.254,-0.419,-46.875,-52.856,-181.091
0.190,0.244,-0.266,-35.645,-44.678,-204.224
0.172,0.223,-0.180,-36.133,-45.959,-221.252
0.221,0.242,-0.177,-45.654,-52.490,-230.713
0.264,0.335,-0.171,-55.115,-62.317,-235.229
0.268,0.434,-0.135,-61.707,-72.754,-242.065
0.309,0.537,-0.146,-65.247,-79.468,-247.253
0.263,0.740,-0.315,-61.157,-81.055,-254.333
0.161,0.706,-0.253,-69.580,-102.417,-280.640
0.187,0.456,-0.380,-103.271,-111.816,-312.012
0.108,0.870,-0.362,-90.332,-100.464,-267.273
-0.317,1.035,-0.218,-81.665,-85.144,-254.456
-0.460,0.964,-0.090,-95.581,-73.181,-250.854
-0.510,1.399,0.058,-94.238,-43.884,-256.165
-0.753,1.683,0.066,-69.763,-43.579,-238.647
-0.946,1.545,-0.116,-74.646,-52.307,-221.863
-1.062,1.583,-0.282,-82.275,-52.979,-198.486
-1.311,1.848,-0.231,-59.387,-61.890,-177.002
-1.347,1.972,-0.100,-21.667,-63.171,-161.865
-1.494,1.574,-0.152,-4.150,-58.960,-179.626
-1.323,1.309,-0.244,-32.288,-55.115,-195.190
-1.182,1.510,-0.376,-36.560,-51.636,-187.683
-1.154,1.460,-0.409,-33.325,-51.819,-170.349
-1.360,1.381,-0.452,-37.720,-38.696,-144.531
-1.679,1.369,-0.448,-34.363,-19.409,-112.915
-1.786,1.362,-0.511,-17.395,-0.671,-85.632
-1.715,1.231,-0.579,-1.953,17.700,-66.833
-1.592,1.116,-0.638,6.531,35.400,-50.232
-1.422,0.959,-0.634,4.517,44.739,-38.635
-1.213,0.944,-0.674,-2.258,46.692,-30.212
-0.988,1.034,-0.640,-3.662,44.495,-16.174
-0.750,1.056,-0.517,-4.028,36.987,1.038
-0.554,1.057,-0.365,-4.272,23.254,20.569
-0.425,1.035,-0.280,-6.348,1.526,39.307
-0.356,1.036,-0.326,-9.338,-24.719,56.641
-0.295,0.850,-0.595,-23.254,-47.852,79.102
-0.673,1.464,-0.979,-20.569,-5.798,185.303
-1.440,0.956,-1.148,-5.859,-24.475,216.309
-1.425,1.102,0.028,16.296,-77.637,155.396
-0.040,1.316,0.099,-8.667,-30.884,127.136
-0.133,1.576,-1.334,-1.221,39.612,127.075
0.554,1.531,-1.073,2.686,73.914,134.399
1.391,1.638,-0.582,-31.372,75.378,181.458
1.296,1.815,-0.589,-43.884,41.687,161.072
0.878,1.359,-0.447,-40.649,0.977,98.511
0.876,1.356,-0.385,-47.424,-42.297,68.787
0.541,1.810,-0.604,-34.241,-67.749,54.565
0.465,1.567,-0.941,-20.874,-84.839,46.082
-0.043,1.575,-1.130,-28.931,-73.120,35.217
-0.588,2.120,-0.475,-22.034,-42.480,31.677
-0.769,2.939,0.443,15.869,-27.771,42.053
-0.647,2.396,0.343,24.414,-19.409,68.237
-0.684,1.600,-0.049,8.301,-10.925,72.815
-0.524,1.047,-0.279,4.272,-5.615,41.565
-0.332,0.448,-0.317,-3.784,4.028,33.020
-0.543,0.199,-0.324,-3.845,7.690,35.767
-0.821,0.189,-0.416,5.493,7.751,22.095
-0.760,0.274,-0.521,10.254,8.545,-0.366
-0.298,0.620,-0.647,16.174,3.479,-14.832
0.060,1.133,-0.624,22.400,-11.169,-11.841
0.035,1.405,-0.379,20.691,-8.850,2.197
-0.156,1.444,-0.385,14.771,-2.686,8.972
-0.292,1.219,-0.454,14.893,0.427,6.409
-0.312,1.052,-0.402,19.348,12.085,2.319
-0.267,0.911,-0.391,19.348,20.020,4.333
-0.218,0.888,-0.349,15.015,19.592,4.639
-0.166,0.923,-0.351,10.986,14.893,4.761
-0.182,0.862,-0.371,10.376,10.864,11.169
-0.263,0.802,-0.356,8.850,13.611,19.653
-0.314,0.750,-0.351,7.324,18.921,24.841
-0.317,0.691,-0.339,5.920,23.621,27.222
-0.326,0.640,-0.329,4.211,22.949,24.048
-0.345,0.618,-0.272,4.333,22.034,18.494
-0.337,0.637,-0.226,5.432,21.667,19.409
-0.276,0.664,-0.211,8.240,20.447,26.855
-0.229,0.721,-0.253,11.719,17.639,34.729
-0.264,0.730,-0.264,16.357,16.968,43.274
-0.271,0.772,-0.345,16.174,20.020,48.523
-0.163,0.829,-0.412,14.832,17.212,49.744
0.044,0.987,-0.478,13.550,15.320,49.438
0.100,1.190,-0.426,16.357,16.846,55.359
-0.037,1.297,-0.394,22.583,19.348,66.650
-0.313,1.189,-0.347,24.292,20.752,72.021
-0.547,1.027,-0.313,17.944,25.024,77.271
-0.518,1.008,-0.330,9.338,36.011,92.163
-0.338,0.960,-0.298,8.850,46.509,107.788
-0.338,0.927,-0.227,10.132,52.124,118.713
-0.421,0.813,-0.299,10.498,51.086,125.488
-0.602,0.690,-0.372,13.245,46.204,121.155
-0.622,0.688,-0.361,13.489,42.297,103.333
-0.553,0.855,-0.333,11.780,38.818,85.205
-0.568,1.183,-0.306,11.597,37.598,78.308
-0.438,1.380,-0.377,12.756,42.358,89.050
-0.157,1.326,-0.451,10.986,45.837,116.821
-0.348,1.240,-0.532,10.925,40.955,139.465
-0.631,1.128,-0.554,7.751,40.771,145.447
-0.961,1.275,-0.687,1.343,37.781,136.597
-0.990,2.042,-0.674,0.488,41.077,120.605
-0.704,2.669,-0.745,14.099,53.467,125.977
-0.382,2.952,-0.717,25.391,73.242,146.179
0.073,2.963,-0.562,42.297,99.182,169.983
0.637,2.579,-0.348,51.575,116.516,182.251
0.943,2.196,-0.216,51.270,120.056,191.345
0.827,1.661,-0.201,54.199,119.690,185.059
0.640,0.972,-0.180,54.565,116.455,152.771
0.697,0.321,-0.097,50.537,100.281,111.450
0.574,-0.186,-0.005,47.974,72.449,68.420
0.245,-0.510,0.143,54.993,38.513,21.057
0.149,-0.775,-0.372,50.842,5.127,-20.935
0.391,-0.878,-0.252,52.795,5.493,-44.739
0.703,-1.131,-0.127,46.509,18.433,-42.725
1.191,-1.269,-0.223,15.259,27.771,-45.044
1.359,-0.929,-0.076,-9.521,20.203,-78.613
1.410,-0.551,-0.107,-25.513,-8.118,-136.475
1.310,-0.279,-0.132,-46.143,-36.316,-186.768
0.878,-0.019,-0.171,-56.946,-54.199,-209.106
0.319,0.151,-0.219,-61.829,-64.087,-214.417
-0.006,0.313,-0.253,-62.317,-65.002,-216.614
0.006,0.405,-0.260,-64.026,-60.913,-222.107
0.140,0.498,-0.209,-65.430,-58.533,-234.375
0.213,0.564,-0.124,-64.636,-52.612,-248.230
0.180,0.607,-0.036,-60.059,-39.917,-258.667
0.110,0.597,0.012,-57.251,-27.893,-264.526
0.035,0.616,0.061,-59.387,-21.667,-268.127
-0.122,0.655,0.081,-73.914,-17.517,-260.498
-0.276,1.006,0.166,-79.590,-24.048,-253.540
-0.344,1.067,0.218,-90.576,-34.607,-264.832
-0.370,1.381,0.094,-92.957,-36.743,-257.263
-0.573,1.645,0.017,-84.656,-36.133,-230.774
-0.766,1.738,-0.102,-87.219,-38.879,-208.008
-1.011,1.854,-0.354,-92.529,-27.222,-215.576
-1.326,1.911,-0.440,-59.204,-36.011,-192.383
-1.242,2.006,-0.467,5.310,-68.420,-152.710
-1.179,1.379,-0.493,2.380,-93.323,-141.113
-1.193,1.215,-0.308,-27.161,-120.056,-147.400
-1.283,1.226,-0.488,-36.499,-110.535,-159.119
-1.458,1.319,-0.515,-33.997,-88.440,-154.175
-1.667,1.363,-0.443,-32.166,-57.129,-134.094
-1.802,1.365,-0.590,-22.705,-30.151,-110.901
-1.794,1.293,-0.672,-8.606,-10.071,-86.121
-1.651,1.144,-0.742,3.357,7.324,-65.430
-1.463,0.978,-0.638,3.296,20.264,-50.110
-1.197,0.944,-0.660,-4.395,27.039,-36.560
-0.983,1.045,-0.675,-10.864,30.212,-20.447
-0.841,1.156,-0.639,-10.071,30.945,-3.418
-0.735,1.152,-0.584,-6.165,29.968,12.024
-0.618,1.105,-0.452,-6.409,22.278,25.757
-0.426,0.970,-0.218,-16.663,16.174,49.377
-0.596,1.530,-0.729,-20.020,46.631,154.846
-0.849,0.711,-0.662,-24.597,34.729,150.452
-1.115,0.720,-0.750,-31.860,-12.512,135.193
-0.875,1.398,-0.127,-2.197,-45.776,149.902
0.363,1.554,0.153,19.714,-7.751,154.419
0.554,1.811,-0.730,42.603,37.476,184.448
-0.251,1.694,-0.694,29.480,59.448,167.664
0.612,1.449,-0.527,2.686,61.768,158.203
1.525,1.880,-0.803,0.183,12.817,133.972
1.142,1.493,-0.792,-13.672,-29.724,80.322
0.423,1.098,-0.724,-39.490,-51.208,66.528
-0.425,1.254,-0.593,-42.664,-57.800,64.880
-0.857,1.302,-0.196,-10.803,-47.913,65.552
-0.975,1.307,0.024,23.010,-27.405,65.979
-0.458,1.378,0.239,43.213,-10.315,65.002
0.486,1.966,-0.243,46.326,-31.921,55.908
1.621,2.521,-0.684,27.832,-68.542,17.456
0.853,2.309,-0.682,-15.747,-76.538,23.132
-1.284,1.698,-0.704,-50.842,-59.082,47.607
-1.539,1.405,-0.339,-34.302,-2.869,51.392
-0.947,0.749,-0.144,-13.367,22.827,40.955
-0.156,0.171,-0.208,6.592,12.634,45.288
-0.068,-0.125,-0.156,3.418,-5.676,39.551
-0.678,0.611,-0.349,-1.404,-15.930,-6.104
-0.535,1.185,-0.534,9.827,-14.038,-18.555
-0.199,1.287,-0.399,16.418,-12.695,3.418
-0.380,1.056,-0.321,12.024,-4.517,7.446
-0.437,0.860,-0.332,5.676,2.930,1.282
-0.340,0.894,-0.263,10.071,6.470,-2.808
-0.342,0.872,-0.257,15.198,9.399,-3.906
-0.346,0.823,-0.281,12.878,8.789,-3.418
-0.290,0.854,-0.319,9.033,6.165,-3.601
-0.285,0.892,-0.356,8.911,4.944,-2.808
-0.274,0.937,-0.375,10.498,8.179,0.854
-0.238,0.925,-0.386,11.047,11.169,5.432
-0.216,0.895,-0.368,10.071,13.489,9.949
-0.197,0.876,-0.359,6.958,14.954,11.230

-0.018,0.926,-0.346,15.198,9.155,35.156
-0.098,0.937,-0.309,14.587,10.986,39.490
-0.034,0.961,-0.309,16.113,12.329,43.152
-0.002,0.963,-0.336,18.005,12.512,46.814
-0.039,0.947,-0.357,17.883,12.268,52.185
-0.047,0.933,-0.342,17.151,12.512,59.326
0.032,0.981,-0.339,17.578,13.611,66.406
0.027,1.002,-0.354,18.738,13.306,72.754
-0.012,0.963,-0.400,18.921,12.268,78.979
0.032,0.969,-0.417,18.738,12.573,83.435
-0.131,0.952,-0.373,20.325,14.099,86.304
-0.199,0.938,-0.330,19.836,19.775,89.783
-0.267,0.995,-0.175,21.606,27.161,92.224
-0.361,1.078,-0.015,22.766,35.950,92.407
-0.190,1.111,-0.059,20.020,40.710,94.543
-0.116,1.103,-0.159,16.907,32.715,99.731
-0.292,1.074,-0.270,14.099,23.071,102.356
-0.351,1.096,-0.314,9.583,23.254,105.225
-0.332,1.257,-0.263,10.742,27.405,111.084
-0.274,1.448,-0.208,13.184,31.372,115.601
-0.213,1.504,-0.178,9.827,30.701,114.014
-0.114,1.594,-0.125,5.371,29.358,130.493
-0.021,1.539,-0.217,0.732,26.062,150.696
-0.123,1.321,-0.372,-2.930,23.254,166.382
-0.343,0.962,-0.430,-6.470,26.245,173.523
-0.552,0.539,-0.458,-17.578,31.677,169.678
-0.715,0.368,-0.411,-31.189,43.091,153.931
-0.587,0.389,-0.355,-25.635,59.204,137.085
-0.460,0.278,-0.274,-12.024,65.735,125.305
-0.634,0.226,-0.198,-7.324,64.453,118.225
-0.655,0.301,-0.130,-9.399,64.697,113.953
-0.546,0.526,-0.067,-6.714,57.495,109.558
-0.478,0.817,-0.082,-2.014,46.570,106.201
-0.419,1.037,-0.131,-2.014,35.950,108.765
-0.564,1.213,-0.206,-5.676,26.184,114.197
-0.639,1.430,-0.354,-9.644,24.536,118.713
-0.516,1.670,-0.486,-8.362,26.184,124.146
-0.514,1.861,-0.574,-5.981,28.564,132.202
-0.545,1.946,-0.663,-6.775,37.964,138.550
-0.442,2.048,-0.733,-3.418,51.697,142.151
-0.365,2.047,-0.731,8.179,65.552,145.142
-0.344,1.797,-0.650,20.447,78.613,142.578
-0.385,1.504,-0.504,32.898,87.097,131.958
-0.440,1.128,-0.387,43.884,88.623,120.483
-0.624,0.814,-0.251,53.589,86.182,109.924
-0.787,0.489,-0.202,64.148,78.796,99.609
-0.775,0.085,-0.095,67.749,74.646,86.548
-0.937,-0.110,0.178,61.035,79.041,72.693
-0.931,-0.209,0.021,68.420,70.129,76.416
-0.664,-0.411,-0.236,71.411,51.208,67.932
-0.440,-0.557,-0.163,49.438,31.067,37.109
-0.371,-0.424,-0.013,36.926,19.165,20.752
-0.364,-0.330,-0.044,32.043,10.742,19.287
-0.426,-0.171,-0.146,26.184,5.920,17.334
-0.317,-0.082,-0.265,22.339,8.057,7.446
-0.016,-0.088,-0.334,18.921,14.221,-6.836
0.204,-0.087,-0.260,15.198,15.808,-23.682
0.148,-0.136,-0.053,5.188,9.216,-42.297
0.056,-0.160,-0.026,-9.521,0.549,-54.321
0.383,0.042,0.089,-21.484,-5.981,-63.843
0.694,0.306,0.074,-22.583,-14.648,-80.750
0.839,0.412,0.080,-17.578,-28.992,-104.248
0.775,0.395,-0.010,-16.968,-45.288,-125.244
0.497,0.337,-0.203,-25.879,-55.115,-137.939
0.259,0.339,-0.307,-40.955,-61.523,-146.484
0.224,0.437,-0.330,-48.828,-69.275,-153.137
0.274,0.518,-0.316,-49.255,-73.120,-163.696
0.295,0.559,-0.331,-48.645,-70.618,-178.101
0.254,0.602,-0.321,-49.255,-66.833,-190.674
0.177,0.634,-0.295,-51.453,-61.951,-199.646
0.139,0.696,-0.278,-52.612,-55.664,-206.421
0.130,0.732,-0.284,-51.941,-48.645,-212.830
0.110,0.745,-0.261,-51.636,-39.978,-219.971
0.055,0.738,-0.242,-52.002,-27.283,-223.694
0.010,0.777,-0.228,-55.237,-13.367,-232.971
0.020,0.641,-0.175,-72.083,-13.794,-249.695
0.139,0.739,-0.043,-73.914,-10.925,-251.587
0.076,0.880,0.043,-66.528,-3.906,-240.967
-0.049,1.002,0.117,-58.289,-5.676,-236.084
-0.092,1.124,0.184,-55.786,-13.977,-236.267
-0.154,1.211,0.112,-54.443,-29.175,-234.436
-0.332,1.056,0.114,-71.350,-33.081,-240.723
-0.481,1.550,0.065,-58.289,-51.758,-210.815
-0.674,1.606,0.025,-35.034,-76.660,-186.157
-0.735,1.437,-0.093,-31.189,-97.839,-175.537
-0.855,1.447,-0.291,-29.419,-110.657,-173.645
-1.013,1.471,-0.363,-17.212,-112.427,-163.574
-1.192,1.293,-0.392,-7.874,-99.243,-156.128
-1.311,1.182,-0.381,-12.756,-77.820,-163.696
-1.247,1.274,-0.363,-17.456,-48.584,-161.377
-1.231,1.446,-0.408,-16.113,-23.560,-145.264
-1.269,1.563,-0.431,-6.958,-11.047,-120.850
-1.334,1.562,-0.481,8.423,-6.042,-92.896
-1.359,1.421,-0.535,20.203,-2.319,-70.313
-1.302,1.234,-0.508,22.217,-0.061,-56.274
-1.183,1.075,-0.445,19.592,-0.488,-45.288
-1.030,0.934,-0.465,12.390,-3.357,-33.936
-0.867,0.901,-0.513,6.531,-10.132,-22.949
-0.713,0.890,-0.530,1.099,-21.118,-11.475
-0.636,0.939,-0.512,-2.625,-34.424,-0.610
-0.610,1.033,-0.497,-4.272,-42.603,10.498
-0.127,0.847,-0.393,-13.916,-17.578,67.383
-0.288,2.135,-0.915,42.480,63.904,248.474
-0.781,0.823,-0.322,32.166,49.255,226.868
-0.541,0.975,-0.335,12.573,42.419,247.864
-0.642,1.042,-0.698,4.089,37.903,281.250
-0.860,0.858,-0.954,-4.944,16.113,301.880
-1.198,0.691,-1.128,-35.767,-9.033,286.499
-1.246,1.157,0.007,-26.733,-37.659,278.503
-0.425,1.926,0.337,-9.949,-8.057,300.720
0.204,2.138,-0.709,19.409,26.794,305.481
0.320,2.035,-0.958,31.067,36.804,274.536
0.606,1.096,-0.925,-0.122,44.250,189.636
0.418,0.950,-0.397,-63.782,32.166,101.624
-0.041,1.881,-0.183,-46.570,-3.784,91.492
0.183,2.220,-0.160,-20.325,-33.691,87.463
0.318,1.834,-0.386,-15.198,-66.833,65.002
-0.035,1.339,-0.428,-27.222,-88.501,45.349
-0.196,1.236,-0.622,-32.043,-94.788,37.354
-0.568,0.828,-0.898,-32.715,-89.417,30.457
-1.170,0.500,-0.743,-27.649,-66.956,32.166
-1.276,0.761,-0.078,-8.728,-37.476,31.311
-0.974,1.130,0.445,20.691,-21.851,26.428
-0.939,1.250,0.562,31.311,-22.156,19.592
-0.807,1.320,0.117,31.433,-20.325,15.869
-0.378,1.268,-0.400,23.621,-21.179,14.343
-0.151,1.314,-0.514,9.277,-31.494,7.263
-0.230,1.370,-0.448,-3.174,-43.518,-4.150
-0.853,1.235,-0.304,-1.160,-32.227,-0.671
-0.883,0.845,-0.388,-5.310,-15.869,7.874
-0.662,0.649,-0.452,-11.414,-8.118,2.991
-0.583,0.508,-0.478,-9.583,-5.127,-1.526
-0.597,0.511,-0.415,-8.972,-2.136,-7.874
-0.509,0.639,-0.363,-9.460,-2.930,-12.573
-0.466,0.851,-0.355,-3.601,-5.676,-11.230
-0.485,0.928,-0.355,0.610,-6.653,-7.507
-0.477,0.856,-0.353,2.441,-6.714,-4.028
-0.498,0.778,-0.346,3.845,-4.944,-5.005
-0.481,0.714,-0.356,2.686,-5.371,-7.324
-0.481,0.722,-0.363,3.418,-5.127,-7.263
-0.482,0.731,-0.381,4.578,-3.296,-5.066
-0.438,0.760,-0.436,4.333,-1.709,-2.441
-0.319,0.781,-0.500,3.052,-1.221,0.427
-0.204,0.885,-0.464,1.770,-2.930,3.052
-0.310,1.003,-0.401,3.357,-1.160,5.493
-0.448,0.881,-0.364,-1.526,-0.244,5.249
-0.486,0.833,-0.297,-7.202,0.854,4.456
-0.418,0.822,-0.294,-8.301,3.052,5.188
-0.392,0.857,-0.319,-7.568,4.761,6.592
-0.385,0.871,-0.356,-8.057,5.798,9.033
-0.390,0.903,-0.398,-9.949,7.263,13.000
-0.405,0.910,-0.425,-10.925,8.850,14.526
-0.366,0.883,-0.426,-10.559,9.766,17.090
-0.319,0.842,-0.400,-10.254,9.338,23.621
-0.362,0.829,-0.415,-6.226,6.897,23.926
-0.370,0.763,-0.407,-2.563,4.761,16.724
-0.342,0.829,-0.400,-2.197,3.967,13.000
-0.365,0.931,-0.393,0.366,3.418,17.517
-0.399,0.994,-0.403,3.540,5.066,25.574
-0.496,1.003,-0.388,3.418,10.986,34.180
-0.516,1.036,-0.348,0.061,20.264,42.786
-0.498,0.940,-0.330,0.061,24.658,51.453
-0.584,0.853,-0.365,0.366,26.733,54.871
-0.517,0.816,-0.468,-0.122,33.447,56.274
-0.287,0.826,-0.539,-2.625,35.461,53.406
-0.371,0.792,-0.566,1.648,37.354,54.749
-0.715,0.725,-0.537,-0.183,47.668,63.660
-0.837,0.782,-0.493,0.854,58.777,64.941
-0.685,0.994,-0.420,4.272,67.139,62.683
-0.450,1.186,-0.385,4.883,72.510,64.087
-0.343,1.220,-0.343,8.911,74.707,73.608
-0.536,1.009,-0.269,6.226,70.801,91.980
-0.729,0.823,-0.176,-0.366,68.359,106.506
-0.708,0.777,-0.140,-2.686,66.528,106.201
-0.524,0.867,-0.168,1.099,60.242,100.281
-0.470,1.041,-0.233,8.606,52.856,93.079
-0.514,1.139,-0.297,13.611,49.255,91.858
-0.624,1.198,-0.339,10.010,49.500,101.074
-0.581,1.148,-0.367,6.348,52.124,112.488
-0.606,1.132,-0.386,2.747,53.345,119.751
-0.672,1.278,-0.471,1.404,56.824,120.361
-0.575,1.537,-0.549,3.784,65.247,116.089
-0.393,1.802,-0.587,9.705,76.172,112.244
-0.304,1.922,-0.653,17.700,88.623,111.267
-0.213,1.781,-0.591,26.733,102.844,111.450
-0.127,1.385,-0.496,31.006,103.271,114.380
-0.065,1.014,-0.372,37.903,82.703,111.816
-0.165,0.638,-0.058,47.302,73.181,103.699
-0.327,0.212,0.061,47.546,73.547,91.125
-0.417,-0.031,-0.044,47.119,66.772,65.430
-0.576,-0.353,0.013,50.598,64.453,47.607
-0.367,-0.606,-0.094,43.945,55.603,44.312
0.330,-0.739,-0.495,31.006,31.921,38.513
0.985,-0.690,-0.549,21.545,20.752,20.508
1.420,-0.612,-0.200,13.245,33.447,-11.353
1.172,-0.420,0.512,2.502,29.114,-65.369
0.612,-0.011,0.365,-6.897,0.183,-109.924
0.149,0.426,-0.005,-1.404,-11.780,-120.972
0.053,0.315,-0.355,-5.310,-26.550,-117.676
0.115,0.264,-0.524,-13.489,-45.654,-126.587
0.127,0.366,-0.266,-6.958,-53.955,-144.531
0.088,0.318,-0.198,-5.127,-54.871,-161.255
0.008,0.257,-0.277,-15.503,-51.819,-173.828
-0.044,0.277,-0.359,-30.396,-50.232,-182.373
-0.059,0.426,-0.338,-38.025,-47.791,-192.017
-0.035,0.529,-0.283,-41.321,-47.852,-200.073
-0.017,0.586,-0.245,-44.250,-50.659,-208.618
-0.015,0.638,-0.200,-46.387,-49.927,-214.111
-0.057,0.685,-0.200,-46.021,-44.250,-220.520
-0.057,0.675,-0.175,-48.523,-47.607,-230.835
-0.013,0.715,-0.158,-53.528,-52.979,-242.920
-0.020,0.834,-0.153,-56.824,-54.077,-251.038
-0.075,0.947,-0.141,-58.960,-54.565,-253.052
-0.144,1.174,-0.168,-63.904,-55.115,-248.596
-0.280,1.188,-0.165,-72.571,-50.659,-262.634
-0.481,1.062,-0.211,-103.516,-49.377,-279.846
-0.541,1.500,-0.296,-74.036,-35.156,-227.661
-0.560,1.572,-0.415,-37.109,-30.884,-183.960
-0.593,1.341,-0.345,-46.143,-42.419,-164.734
-0.915,1.602,-0.296,-48.462,-54.260,-165.955
-1.346,1.555,-0.203,-40.771,-55.359,-179.382
-1.380,1.471,-0.253,-39.124,-48.401,-195.068
-1.345,1.431,-0.321,-36.926,-41.321,-193.359
-1.333,1.389,-0.320,-33.264,-32.959,-177.673
-1.301,1.301,-0.350,-27.466,-23.010,-160.645
-1.236,1.197,-0.394,-23.987,-11.536,-145.691
-1.169,1.200,-0.396,-17.578,2.014,-128.784
-1.155,1.187,-0.388,-10.620,13.733,-110.046
-1.165,1.156,-0.443,-4.822,21.973,-92.224
-1.139,1.072,-0.480,-2.075,29.358,-76.172
-1.075,1.026,-0.446,-2.686,36.560,-61.279
-0.941,0.965,-0.355,-5.371,37.903,-49.683
-0.852,0.954,-0.321,-8.972,33.203,-38.208
-0.845,0.954,-0.298,-9.766,26.550,-22.583
-0.854,0.868,-0.298,-11.719,15.381,-5.859
-0.841,0.837,-0.307,-13.245,3.784,9.644
-0.810,0.875,-0.286,-11.841,-3.601,25.818
-0.766,0.959,-0.245,-6.958,-4.883,42.664

-0.211,1.270,-0.453,13.000,21.179,113.464
-0.549,0.987,-0.360,9.583,34.119,127.380
-0.532,0.963,-0.264,12.146,44.739,124.939
-0.383,0.945,-0.280,10.864,49.500,119.629
-0.273,1.082,-0.262,9.949,50.598,119.324
-0.283,1.082,-0.265,7.874,52.368,124.939
-0.424,1.028,-0.184,6.042,54.565,131.958
-0.470,0.957,-0.095,7.019,56.702,137.634
-0.502,0.804,-0.033,8.667,54.321,138.977
-0.501,0.654,0.059,7.629,53.040,135.437
-0.509,0.555,-0.002,6.348,46.692,128.174
-0.777,0.576,-0.051,7.507,39.795,119.263
-0.766,0.708,-0.150,7.507,41.199,109.314
-0.488,1.085,-0.278,10.254,38.208,103.577
-0.322,1.383,-0.410,15.259,34.241,112.732
-0.513,1.298,-0.487,13.489,32.837,125.732
-0.710,1.236,-0.493,10.559,35.828,131.836
-0.691,1.393,-0.574,8.118,40.161,130.859
-0.597,1.751,-0.647,10.071,44.250,127.930
-0.480,2.012,-0.736,13.672,51.086,128.357
-0.383,2.128,-0.817,18.188,62.256,133.240
-0.316,2.109,-0.820,21.545,77.393,141.724
-0.239,1.885,-0.715,25.452,91.064,147.400
-0.248,1.559,-0.654,29.602,85.327,137.024
-0.190,1.248,-0.270,39.246,84.045,116.211
-0.608,0.741,0.130,52.856,111.145,119.873
-1.032,0.121,0.087,49.500,120.361,116.028
-1.025,-0.225,-0.015,28.442,117.432,87.830
-0.754,-0.270,-0.029,23.560,109.741,65.674
-0.431,-0.275,0.015,29.297,100.464,50.903
0.012,-0.453,-0.105,29.053,84.229,40.466
0.522,-0.668,-0.254,16.724,66.711,25.513
0.999,-0.647,-0.078,2.563,48.584,5.005
1.293,-0.411,0.302,-4.150,19.714,-20.325
1.259,-0.051,0.178,-11.169,-22.522,-57.434
0.935,0.212,-0.107,-7.996,-55.481,-79.834
0.514,0.109,-0.368,-13.489,-70.007,-91.858
0.229,0.005,-0.422,-23.987,-73.303,-103.455
0.162,0.064,-0.302,-28.015,-69.580,-118.347
0.162,0.125,-0.229,-27.405,-60.425,-138.611
0.156,0.102,-0.204,-28.015,-52.490,-157.715
0.136,0.146,-0.159,-33.569,-46.753,-170.898
0.139,0.305,-0.099,-38.025,-47.119,-179.810
0.179,0.473,-0.064,-36.499,-39.673,-184.387
0.150,0.527,-0.082,-38.818,-54.993,-193.604
0.291,0.554,-0.009,-48.889,-95.581,-207.764
0.368,0.636,-0.078,-51.270,-111.877,-213.745
0.228,0.636,-0.117,-53.711,-121.460,-218.811
0.135,0.660,-0.125,-54.749,-126.221,-222.534
0.058,0.703,-0.165,-50.659,-119.019,-222.168
-0.069,0.651,-0.198,-50.964,-110.413,-222.290
-0.208,0.690,-0.197,-51.453,-100.464,-224.854
-0.317,0.745,-0.223,-51.086,-88.257,-227.051
-0.440,0.838,-0.214,-48.401,-78.796,-226.685
-0.543,0.880,-0.245,-48.584,-73.120,-218.018
-0.630,0.923,-0.269,-55.359,-73.547,-206.055
-0.698,1.008,-0.302,-62.500,-79.163,-194.763
-0.754,1.141,-0.419,-65.369,-80.627,-181.641
-0.837,1.258,-0.410,-61.157,-75.073,-168.640
-1.033,1.613,-0.413,-46.509,-72.937,-154.053
-1.140,1.622,-0.353,-24.353,-71.045,-157.715
-1.336,1.360,-0.359,-33.203,-65.552,-182.922
-1.278,1.327,-0.458,-40.405,-51.270,-186.462
-1.180,1.364,-0.548,-34.973,-36.682,-174.377
-1.094,1.253,-0.527,-33.081,-24.414,-160.706
-1.100,1.261,-0.444,-34.851,-7.202,-147.156
-1.105,1.341,-0.399,-28.320,10.864,-132.996
-1.086,1.334,-0.401,-14.832,26.123,-118.469
-1.037,1.392,-0.347,-7.019,43.884,-111.023
-0.952,1.167,-0.490,-9.033,52.185,-86.304
-0.792,1.235,-0.291,5.066,16.602,-53.955
-0.680,1.143,-0.394,-3.540,1.953,-31.921
-0.795,1.011,-0.413,-10.620,-0.427,-30.396
-0.871,1.085,-0.329,-13.000,1.099,-25.513
-0.780,1.159,-0.296,-12.024,1.404,-14.038
-0.627,1.240,-0.327,-7.874,-5.493,1.099
-0.533,1.292,-0.314,-0.793,-21.606,17.212
-0.313,1.229,-0.322,-1.099,-40.710,32.593
-0.545,1.763,-0.522,30.212,-10.071,131.531
-0.268,1.190,-0.291,61.279,-13.489,161.133
-0.159,0.699,-0.361,32.166,-37.537,150.269
-0.340,0.961,-0.693,27.283,-51.697,167.480
-0.772,0.962,-0.899,23.682,-50.842,181.702
-1.125,0.968,-0.704,15.503,-54.932,186.768
-1.407,1.064,-0.292,13.306,-64.331,169.861
-0.727,1.221,0.020,2.014,-35.339,129.089
-0.098,1.220,-0.957,-29.297,11.780,122.498
-0.022,1.342,-0.915,-33.569,41.321,150.696
0.541,1.388,-0.749,-63.904,39.307,205.322
0.719,1.824,-0.532,-55.542,57.068,192.749
0.661,1.420,0.049,-31.067,44.678,127.991
0.530,1.203,-0.102,-33.020,-1.282,98.572
0.406,1.467,-0.329,-21.179,-30.457,87.891
0.236,1.516,-0.403,1.099,-50.171,85.205
0.252,1.222,-0.411,-1.648,-64.026,76.721
-0.144,1.004,-0.462,-12.939,-71.838,67.444
-0.847,1.259,-0.359,-11.047,-70.984,53.284
-0.727,1.477,-0.335,2.136,-59.204,38.757
-0.771,1.758,-0.180,19.348,-47.546,31.128
-0.644,1.666,-0.116,28.809,-36.377,34.546
-0.654,1.357,-0.044,13.977,-25.940,32.898
-0.486,1.379,-0.161,-0.427,-17.700,23.560
-0.298,1.379,-0.324,-0.427,-14.648,11.292
-0.478,1.143,-0.310,-2.197,-12.817,12.878
-0.534,0.946,-0.399,-4.883,-10.315,21.240
-0.401,0.769,-0.513,-2.197,-8.362,18.066
-0.477,0.628,-0.533,0.305,-5.127,13.428
-0.525,0.624,-0.500,0.122,1.038,6.531
-0.470,0.745,-0.462,1.343,3.479,-3.540
-0.410,0.863,-0.376,5.310,3.235,-6.592
-0.385,0.857,-0.347,7.812,1.404,-4.089
-0.391,0.783,-0.370,9.888,0.977,-1.160
-0.362,0.738,-0.393,10.376,-0.122,1.404
-0.348,0.739,-0.441,11.108,0.854,5.066
-0.266,0.806,-0.392,9.277,2.441,7.874
-0.235,0.922,-0.383,7.446,3.784,8.789
-0.292,0.958,-0.304,7.568,5.615,12.085
-0.299,0.987,-0.281,6.897,3.906,13.794
-0.278,0.983,-0.276,7.690,3.296,18.433
-0.324,0.888,-0.282,8.606,3.845,25.024
-0.358,0.785,-0.324,6.042,4.456,34.790
-0.359,0.723,-0.374,2.686,6.531,40.771
-0.283,0.729,-0.382,2.319,8.484,40.222
-0.155,0.814,-0.390,1.892,11.292,36.987
-0.081,0.953,-0.371,8.118,11.047,32.654
-0.249,1.028,-0.363,16.357,9.277,27.954
-0.533,1.053,-0.340,16.541,11.047,30.273
-0.620,1.099,-0.278,18.188,15.137,29.114
-0.404,1.168,-0.212,12.817,18.982,35.217
-0.212,1.261,-0.249,15.198,19.409,49.072
-0.242,1.275,-0.346,13.855,21.240,64.819
-0.353,1.209,-0.445,5.005,26.062,86.548
-0.417,1.267,-0.502,-3.540,31.555,91.614
-0.427,1.274,-0.524,-3.357,33.569,68.176
-0.371,1.309,-0.599,-12.939,38.391,88.806
-0.459,1.326,-0.651,-18.127,46.753,110.596
-0.422,1.182,-0.564,-21.423,59.265,124.268
-0.218,0.875,-0.465,-25.452,70.618,133.667
-0.449,0.565,-0.268,-23.743,77.881,138.550
-0.783,0.269,-0.115,-17.395,85.876,134.583
-1.065,0.090,0.033,-8.484,92.957,125.061
-0.953,0.027,0.152,-6.836,94.421,117.188
-0.319,0.379,0.117,-11.353,79.041,98.572
0.048,1.023,-0.163,0.732,41.748,77.881
-0.381,1.380,-0.320,0.183,19.897,85.754
-0.840,1.674,-0.488,-10.559,17.090,106.567
-0.665,1.879,-0.601,-14.893,28.748,116.638
-0.257,2.087,-0.632,-6.714,42.358,121.338
-0.129,2.085,-0.640,6.531,55.725,127.502
-0.364,1.889,-0.569,13.367,68.604,132.385
-0.449,1.588,-0.451,23.437,83.984,124.023
-0.302,1.196,-0.232,33.020,99.121,112.244
-0.181,0.880,-0.026,37.109,105.408,96.558
-0.160,0.676,0.000,43.884,97.717,75.500
-0.062,0.537,0.153,53.833,91.309,48.706
-0.247,0.497,0.218,72.388,96.802,25.208
-0.583,0.143,-0.006,90.881,97.778,24.109
-0.778,-0.341,-0.180,87.952,84.839,34.363
-0.526,-0.716,-0.547,69.641,46.326,36.316
0.261,-0.893,-1.008,54.749,-14.954,24.963
1.038,-0.955,-1.354,29.053,-59.570,7.874
1.636,-0.751,-0.944,2.014,-39.307,-13.367
1.656,-0.420,-0.241,-16.968,13.855,-52.368
1.193,-0.072,0.007,-13.611,23.987,-116.272
1.089,0.115,-0.098,-10.193,34.546,-174.194
0.907,0.030,-0.514,-31.860,44.495,-204.590
0.485,0.149,-0.537,-64.392,35.522,-214.294
0.307,0.529,-0.020,-83.618,26.611,-211.548
0.471,0.926,0.164,-77.881,15.076,-216.309
0.548,1.077,-0.009,-54.932,-8.850,-226.501
0.296,0.841,-0.158,-46.997,-35.278,-232.971
-0.010,0.577,-0.324,-68.420,-50.476,-237.183
-0.159,0.635,-0.274,-85.754,-59.570,-238.953
-0.153,0.752,-0.154,-86.975,-67.993,-238.770
-0.116,0.817,-0.077,-82.275,-72.998,-243.469
-0.106,0.829,-0.059,-73.364,-70.801,-250.549
-0.196,0.930,-0.102,-70.313,-68.176,-259.399
-0.403,1.064,-0.102,-87.830,-72.205,-270.264
-0.750,0.815,-0.091,-126.160,-59.265,-290.039
-0.911,1.288,-0.172,-99.792,-37.781,-240.540
-1.031,1.616,-0.119,-51.758,-37.476,-174.377
-0.891,1.419,-0.025,-34.424,-59.082,-141.663
-0.936,1.308,-0.209,-39.612,-64.209,-150.024
-1.366,1.355,-0.248,-39.185,-54.382,-180.786
-1.446,1.348,-0.298,-43.762,-44.922,-191.467
-1.204,1.481,-0.362,-34.668,-35.522,-184.204
-1.121,1.330,-0.377,-30.396,-21.301,-177.124
-1.090,1.282,-0.339,-33.081,-6.775,-174.194
-1.141,1.250,-0.329,-34.058,0.854,-163.391
-1.183,1.309,-0.291,-28.259,4.883,-144.470
-1.260,1.350,-0.300,-15.808,9.277,-124.146
-1.269,1.319,-0.305,-1.892,17.639,-105.652
-1.138,1.206,-0.350,6.531,20.691,-88.623
-0.882,1.100,-0.337,5.859,15.442,-71.167
-0.686,1.016,-0.438,-1.221,6.897,-52.734
-0.640,1.007,-0.499,-9.277,1.099,-33.936
-0.734,1.024,-0.447,-15.015,-1.709,-16.357
-0.830,1.047,-0.373,-13.855,-7.202,-3.723
-0.838,1.067,-0.364,-12.939,-6.104,5.249
-0.574,1.072,-0.255,-19.958,-4.211,23.193
-0.640,1.871,-0.401,-4.089,58.289,183.105
-0.606,1.239,-0.236,30.334,71.472,227.844
-0.483,0.734,-0.237,15.320,58.044,217.834
-0.477,1.011,-0.644,11.475,52.490,258.179
-0.884,0.913,-0.937,5.188,31.738,281.189
-1.479,0.902,-0.550,24.231,-9.521,272.766
-0.864,1.586,0.609,55.786,-18.127,259.766
-0.037,1.792,-0.669,56.824,16.479,258.789
-0.228,1.703,-0.824,57.739,31.433,257.568
0.506,1.639,-0.881,32.715,49.500,254.517
0.820,1.312,-0.872,4.517,34.058,190.552
0.438,1.011,-0.771,-30.518,3.174,122.986
-0.135,1.106,-0.483,-42.480,-24.963,94.666
-0.187,1.334,-0.270,-32.532,-42.297,84.412
-0.533,1.276,-0.103,-6.226,-48.950,77.820
-0.695,1.203,-0.093,1.160,-46.082,63.660
-0.336,1.542,-0.471,-1.221,-35.950,47.852
0.239,2.185,-0.970,0.488,-51.575,19.714
0.431,2.634,-0.726,7.690,-72.815,-4.150
-0.602,2.324,-0.023,3.784,-81.482,1.404
-1.606,1.540,0.024,-15.381,-54.321,11.108
-1.466,0.916,-0.147,-30.090,-7.202,19.409
-0.827,0.320,-0.387,-35.950,2.441,13.000
-0.331,0.170,-0.482,-12.512,-5.005,22.827
-0.344,0.209,-0.387,4.578,-2.930,31.250
-0.620,0.459,-0.291,-1.953,-12.085,2.197
-0.708,0.835,-0.357,-0.061,-12.024,-0.427
-0.635,1.042,-0.203,5.981,-8.301,3.174
-0.530,1.033,-0.295,9.399,-9.277,1.038
-0.549,0.886,-0.390,6.531,-14.160,-4.089
-0.529,0.813,-0.410,1.221,-15.198,-9.521
-0.457,0.824,-0.382,0.671,-10.498,-10.864
-0.405,0.841,-0.382,1.038,-5.554,-9.949
-0.365,0.860,-0.422,0.549,-3.662,-9.338
-0.377,0.862,-0.416,0.793,-3.113,-8.423
-0.378,0.860,-0.373,2.686,-2.502,-7.141
-0.372,0.830,-0.352,4.211,-2.380,-6.409
-0.360,0.831,-0.344,4.578,-2.625,-5.432

0.187,0.962,-0.353,16.785,8.667,69.031
0.039,0.943,-0.363,18.188,5.310,74.890
-0.133,0.936,-0.282,19.470,7.202,79.895
-0.184,0.934,-0.267,19.653,12.085,84.595
-0.223,0.965,-0.225,21.729,18.921,88.928
-0.104,0.976,-0.194,22.949,26.733,92.651
-0.029,0.957,-0.256,22.095,26.917,96.008
-0.089,0.948,-0.210,19.165,25.879,98.206
-0.106,0.970,-0.190,15.625,26.001,99.609
-0.213,0.992,-0.236,14.526,24.658,100.525
-0.358,0.998,-0.260,14.771,26.733,102.051
-0.304,0.964,-0.214,13.550,33.447,103.638
-0.254,0.962,-0.240,14.099,32.654,104.919
-0.427,0.926,-0.242,16.235,29.114,104.736
-0.458,0.877,-0.255,14.221,31.006,103.699
-0.346,0.936,-0.192,15.198,31.311,102.417
-0.320,1.004,-0.156,20.142,29.236,101.990
-0.417,1.014,-0.156,19.897,26.062,103.333
-0.557,1.127,-0.202,16.846,21.912,106.201
-0.520,1.430,-0.205,16.357,19.897,112.488
-0.267,1.607,-0.148,19.836,19.653,127.075
-0.020,1.503,-0.135,20.691,19.775,145.935
-0.129,1.209,-0.244,17.029,18.921,158.386
-0.643,1.104,-0.447,12.146,21.790,167.175
-0.783,0.845,-0.499,0.183,38.025,173.645
-0.610,0.815,-0.510,-0.916,54.749,167.969
-0.568,0.813,-0.448,3.967,64.392,154.724
-0.690,1.119,-0.333,2.869,68.176,141.785
-0.626,1.841,-0.237,1.892,66.711,139.893
-0.474,2.315,-0.219,4.456,66.040,155.762
-0.450,2.428,-0.172,10.010,69.092,177.307
-0.351,2.315,-0.186,18.433,72.876,194.336
-0.255,2.122,-0.171,29.358,77.820,202.637
-0.185,1.947,-0.174,40.222,84.961,202.148
0.001,1.608,-0.192,50.293,88.562,191.040
0.247,1.154,-0.278,54.199,73.242,165.405
0.277,0.711,-0.074,59.875,57.617,135.193
0.026,0.340,0.058,69.031,56.702,116.882
-0.288,-0.155,-0.084,79.468,49.438,104.004
-0.401,-0.607,-0.179,70.190,37.964,80.811
-0.225,-0.635,-0.090,58.838,22.827,51.025
0.391,-0.847,-0.322,51.270,7.263,34.912
0.924,-0.905,-0.355,38.635,2.136,12.878
1.030,-0.783,-0.011,28.442,-3.052,-22.034
0.661,-0.405,0.071,17.578,-18.188,-65.735
0.301,-0.006,-0.141,17.151,-25.635,-91.309
0.152,0.058,-0.382,13.672,-24.841,-103.149
0.126,-0.008,-0.382,6.287,-29.419,-113.403
0.158,-0.061,-0.252,0.549,-33.875,-128.906
0.127,-0.055,-0.234,-4.883,-39.551,-147.034
0.047,-0.017,-0.299,-15.381,-46.448,-162.720
0.011,0.097,-0.346,-27.710,-53.162,-172.668
0.047,0.266,-0.348,-36.560,-60.242,-181.458
0.070,0.390,-0.349,-42.480,-66.223,-191.223
0.082,0.573,-0.341,-42.725,-71.411,-197.266
0.078,0.630,-0.332,-45.593,-72.510,-207.642
0.066,0.677,-0.339,-51.819,-68.970,-220.215
0.040,0.763,-0.326,-52.551,-63.538,-227.356
-0.001,0.808,-0.300,-50.232,-57.068,-231.323
-0.038,0.813,-0.278,-51.636,-48.950,-235.779
-0.115,0.798,-0.290,-58.899,-40.710,-238.098
-0.161,0.872,-0.253,-60.181,-32.898,-240.967
-0.163,0.919,-0.252,-61.768,-24.719,-245.239
-0.158,0.998,-0.234,-61.401,-19.836,-248.291
-0.192,1.061,-0.192,-62.134,-17.090,-245.850
-0.272,1.137,-0.191,-67.322,-14.771,-238.464
-0.392,1.232,-0.224,-72.510,-15.564,-224.426
-0.546,1.326,-0.282,-76.660,-19.653,-204.285
-0.666,1.476,-0.279,-70.618,-29.236,-182.373
-0.980,1.555,-0.247,-63.171,-37.109,-172.668
-1.058,1.814,-0.177,-29.541,-39.001,-149.902
-1.276,1.400,-0.164,-19.714,-38.330,-163.269
-1.125,1.254,-0.214,-33.325,-29.297,-177.734
-0.968,1.318,-0.262,-34.058,-17.517,-171.936
-0.828,1.300,-0.270,-31.494,-14.893,-157.166
-0.814,1.257,-0.265,-30.945,-14.282,-138.916
-0.935,1.277,-0.263,-29.114,-11.108,-116.882
-1.041,1.328,-0.285,-22.827,-6.531,-97.107
-1.085,1.305,-0.331,-12.756,-2.686,-83.618
-1.069,1.202,-0.385,-5.066,2.075,-74.280
-1.009,1.067,-0.419,-1.770,6.958,-64.880
-0.893,0.974,-0.410,-2.747,10.315,-52.673
-0.764,0.885,-0.371,-7.385,11.597,-41.199
-0.655,0.891,-0.346,-11.780,12.146,-32.166
-0.557,0.953,-0.303,-14.099,12.268,-23.926
-0.474,1.061,-0.281,-11.414,13.062,-15.747
-0.404,1.045,-0.309,-12.451,11.780,-7.568
-0.343,1.175,-0.252,-10.193,-2.930,2.075
-0.096,0.845,-0.297,-21.912,15.381,101.013
-0.191,1.824,-0.493,-5.676,46.875,231.445
-0.346,0.630,-0.253,-22.888,42.725,162.109
-0.198,0.974,-0.192,-33.875,44.861,168.030
-0.216,1.119,-0.299,-20.447,54.138,185.425
-0.332,0.915,-0.467,-23.499,51.697,182.800
-0.719,0.799,-0.571,-31.555,44.373,181.213
-1.185,0.925,-0.758,-36.560,42.053,209.839
-1.665,1.022,-0.185,-6.042,23.987,224.121
-0.863,1.211,0.210,-2.258,25.269,229.492
-0.154,1.534,-0.696,7.202,47.729,228.088
0.441,1.617,-0.929,30.701,51.086,219.788
0.958,1.550,-0.710,16.602,54.382,165.894
0.616,1.007,-0.414,-17.944,24.597,114.746
0.179,1.083,-0.579,-38.940,-10.498,78.735
0.108,1.450,-0.488,-33.142,-40.344,60.120
0.180,1.669,-0.544,-9.216,-59.814,52.795
-0.047,1.662,-0.454,11.108,-71.777,49.744
-0.269,1.789,-0.305,18.494,-76.050,34.485
-0.324,2.146,-0.260,26.917,-78.735,22.949
-0.599,2.274,-0.265,25.757,-73.120,13.916
-0.810,2.115,-0.182,20.203,-51.880,23.315
-1.035,1.538,-0.136,10.132,-26.550,37.720
-0.864,0.906,-0.183,-2.747,-11.353,34.607
-0.693,0.407,-0.261,-14.648,-8.545,31.921
-0.476,0.177,-0.426,-7.568,-4.761,41.687
-0.360,0.180,-0.426,8.301,-0.671,48.828
-0.502,0.483,-0.384,5.005,-4.944,19.409
-0.580,0.771,-0.337,1.343,-12.207,-2.808
-0.591,1.094,-0.298,1.953,-11.353,1.831
-0.448,1.122,-0.299,2.136,-13.916,11.597
-0.241,1.049,-0.341,4.089,-17.517,15.198
-0.273,0.937,-0.345,4.944,-22.949,8.301
-0.490,0.840,-0.363,4.761,-20.325,5.920
-0.561,0.744,-0.405,0.610,-13.977,3.113
-0.559,0.762,-0.378,-3.601,-7.141,-4.089
-0.504,0.820,-0.360,-4.211,-2.502,-9.460
-0.406,0.857,-0.365,-2.625,-0.061,-10.376
-0.363,0.864,-0.357,-0.183,0.488,-8.118
-0.348,0.871,-0.359,0.854,1.038,-3.784
-0.348,0.839,-0.336,1.343,1.160,-0.488
-0.357,0.808,-0.336,0.671,0.977,0.610
-0.372,0.825,-0.357,-1.160,0.977,1.160
-0.370,0.831,-0.364,-1.770,0.916,2.747
-0.368,0.843,-0.376,-2.563,2.075,3.357
-0.371,0.848,-0.370,-3.662,3.174,5.005
-0.351,0.835,-0.379,-5.249,5.615,8.667
-0.354,0.840,-0.382,-5.798,7.996,14.099
-0.324,0.818,-0.399,-6.958,10.620,18.250
-0.280,0.822,-0.406,-7.019,11.719,21.729
-0.249,0.894,-0.411,-6.226,12.512,24.231
-0.185,0.913,-0.436,-3.906,11.292,28.076
-0.252,0.874,-0.394,-1.160,7.324,27.222
-0.458,0.841,-0.315,-2.625,6.104,26.611
-0.557,0.817,-0.263,-3.113,9.521,25.452
-0.506,0.871,-0.256,-4.272,11.902,24.536
-0.432,0.926,-0.310,-2.747,12.512,23.376
-0.307,1.027,-0.365,-0.854,15.564,21.301
-0.048,1.118,-0.453,-2.197,20.142,28.931
0.104,1.166,-0.602,3.418,21.057,34.668
-0.127,0.979,-0.652,5.676,19.897,43.152
-0.854,0.732,-0.627,1.160,23.437,53.650
-1.152,0.705,-0.428,-5.859,39.307,62.622
-0.634,0.889,-0.228,-4.028,58.105,67.627
-0.285,0.969,-0.201,5.859,60.669,70.618
-0.606,0.818,-0.224,2.869,54.504,79.163
-0.890,0.877,-0.282,-3.662,53.406,71.106
-0.496,1.197,-0.444,-3.845,61.646,59.692
0.164,1.343,-0.489,1.892,66.467,65.796
-0.032,0.994,-0.390,-2.563,58.655,91.553
-0.857,0.676,-0.489,-10.864,54.199,106.506
-1.172,0.560,-0.509,-18.005,62.073,105.957
-0.763,0.705,-0.349,-16.724,73.486,97.351
-0.304,0.888,-0.195,-6.409,74.463,88.745
-0.591,0.879,-0.242,-8.850,66.406,90.942
-1.072,1.145,-0.427,-7.751,63.049,89.661
-1.011,1.632,-0.502,-7.629,65.979,86.853
-0.560,2.245,-0.506,-3.052,72.266,89.172
0.051,2.657,-0.435,9.705,85.571,96.741
0.302,2.737,-0.366,19.043,95.276,121.460
-0.110,2.413,-0.396,26.611,102.051,153.381
-0.397,1.986,-0.166,27.161,127.625,166.382
-0.225,1.623,-0.222,33.630,138.306,153.503
0.156,1.224,-0.242,53.833,128.540,138.428
0.253,0.763,-0.159,65.369,111.145,122.986
0.111,0.348,-0.248,78.003,78.552,95.703
0.009,-0.075,-0.165,86.487,55.542,61.279
0.143,-0.545,-0.461,82.397,39.124,38.879
0.165,-1.059,-0.582,76.294,23.804,38.879
0.394,-1.276,-0.591,54.443,9.583,39.673
0.788,-1.199,-0.456,31.433,18.494,26.001
1.041,-0.864,-0.258,18.860,37.048,-8.789
1.057,-0.633,0.103,17.456,48.401,-60.547
0.801,-0.397,0.516,8.789,49.805,-113.403
0.236,0.124,0.459,7.202,26.794,-140.137
-0.137,0.472,0.451,14.343,0.854,-137.512
0.093,0.436,0.157,5.920,-20.569,-128.601
0.316,0.387,-0.438,-5.798,-64.270,-138.855
0.187,0.458,-0.438,-4.517,-100.098,-156.372
-0.103,0.368,-0.253,-4.150,-108.826,-160.767
-0.107,0.287,-0.441,-14.221,-117.371,-167.847
-0.062,0.262,-0.601,-30.945,-125.427,-176.636
-0.114,0.472,-0.552,-39.734,-123.718,-187.317
-0.152,0.620,-0.451,-40.161,-118.164,-198.181
-0.148,0.679,-0.407,-40.405,-111.206,-208.069
-0.154,0.688,-0.404,-41.687,-100.098,-217.712
-0.168,0.697,-0.416,-40.833,-83.557,-223.999
-0.185,0.771,-0.487,-42.297,-61.829,-241.089
-0.140,0.794,-0.264,-45.715,-58.777,-254.883
-0.201,0.645,-0.383,-65.308,-37.842,-285.950
-0.378,0.788,-0.282,-86.670,-26.855,-275.574
-0.458,1.304,-0.364,-67.444,-0.061,-235.352
-0.540,1.350,-0.271,-61.340,6.470,-212.280
-0.544,1.419,-0.179,-61.829,-0.549,-208.374
-0.620,1.564,-0.377,-63.904,-13.306,-202.209
-0.837,1.939,-0.180,-49.988,-35.156,-177.612
-1.021,1.882,-0.044,-31.738,-57.251,-170.044
-1.158,1.652,-0.000,-30.212,-67.566,-178.589
-1.139,1.650,-0.100,-29.297,-73.914,-175.293
-1.213,1.619,-0.171,-18.616,-82.214,-159.729
-1.213,1.382,-0.279,-14.893,-86.609,-142.883
-1.244,1.256,-0.402,-16.846,-79.895,-126.709
-1.301,1.221,-0.392,-13.550,-65.430,-108.032
-1.348,1.174,-0.387,-7.996,-46.753,-88.013
-1.386,1.115,-0.432,-0.244,-29.236,-68.909
-1.402,1.026,-0.449,6.531,-11.719,-51.636
-1.334,0.901,-0.481,10.742,2.747,-36.926
-1.170,0.818,-0.490,10.071,11.841,-22.461
-0.996,0.807,-0.419,6.165,17.822,-10.864
-0.818,0.807,-0.359,1.831,22.278,-5.493
-0.654,0.910,-0.322,-0.244,21.301,5.005
-0.520,0.926,-0.269,-2.808,9.277,16.174
-0.449,0.958,-0.286,-4.517,-4.761,28.870
-0.413,0.983,-0.275,-4.150,-25.940,44.922
-0.197,0.756,-0.225,4.761,-4.333,145.203
-0.424,1.337,-0.975,49.683,47.913,276.245
-0.964,0.515,-0.632,26.978,13.916,250.977
-1.035,0.687,-0.808,-11.536,-4.089,270.813
-1.412,1.190,-0.180,15.137,-20.569,273.743
-1.107,1.396,0.240,10.376,-18.250,250.488
-0.072,1.417,-0.705,-16.785,19.897,250.427
0.258,1.745,-0.935,-15.076,50.659,261.414
0.091,1.581,-0.618,1.709,59.021,277.527
0.089,1.367,-0.555,4.089,55.786,279.602
0.307,1.413,-0.523,-4.639,31.860,228.333
0.499,1.386,-0.391,-9.949,-13.550,163.452
0.210,1.372,-0.402,-1.343,-57.678,113.342
-0.418,0.961,-0.092,9.216,-82.336,81.909
-0.805,1.145,-0.158,5.859,-70.374,67.200
-0.260,1.638,-0.732,13.000,-58.533,55.115

0.007,0.960,-0.340,10.925,3.967,38.879
0.017,0.950,-0.362,12.573,4.211,43.396
0.041,0.953,-0.322,13.855,4.089,48.462
0.108,0.945,-0.389,15.320,2.686,53.345
-0.001,0.915,-0.387,15.625,2.197,58.105
-0.054,0.917,-0.309,15.869,5.188,63.232
-0.025,0.938,-0.324,17.517,7.080,67.139
-0.075,0.949,-0.297,18.860,8.484,70.740
-0.022,0.955,-0.225,18.921,10.559,74.036
-0.058,0.949,-0.273,17.944,9.094,76.660
-0.216,0.945,-0.266,16.968,9.644,78.369
-0.216,0.935,-0.260,14.282,14.648,78.674
-0.230,0.961,-0.283,14.282,18.799,78.247
-0.262,1.003,-0.279,17.334,26.184,79.651
-0.171,0.972,-0.341,18.494,32.715,82.520
-0.130,0.934,-0.372,18.677,37.109,85.632
-0.027,0.892,-0.303,16.846,39.246,87.585
-0.144,0.917,-0.303,16.785,34.363,87.158
-0.347,0.959,-0.181,16.785,34.668,85.449
-0.320,0.978,-0.115,16.602,37.842,84.473
-0.319,1.005,-0.189,17.334,33.020,85.876
-0.357,1.011,-0.258,17.151,30.396,86.914
-0.276,1.046,-0.358,17.944,30.334,87.708
-0.292,1.090,-0.380,20.142,32.593,90.820
-0.161,1.136,-0.312,20.203,39.246,96.191
-0.095,1.133,-0.286,20.203,37.842,104.187
-0.277,1.028,-0.300,18.372,31.494,110.107
-0.475,0.998,-0.369,16.663,26.855,109.375
-0.660,0.928,-0.439,17.578,28.564,107.971
-0.554,0.862,-0.389,17.517,37.048,106.323
-0.349,0.785,-0.375,16.113,42.603,104.248
-0.640,0.826,-0.305,16.174,47.241,102.173
-0.740,0.950,-0.240,16.846,60.608,101.746
-0.511,1.123,-0.194,22.095,67.810,102.173
-0.333,1.331,-0.048,27.527,67.993,106.567
-0.452,1.421,-0.009,27.161,65.186,115.662
-0.719,1.614,-0.031,24.536,64.453,123.474
-0.662,1.862,-0.091,24.414,61.157,130.676
-0.398,2.285,-0.105,25.085,51.941,141.907
-0.189,2.544,-0.203,29.419,48.828,162.842
-0.063,2.475,-0.318,30.884,49.988,188.354
-0.114,2.314,-0.383,31.250,56.152,207.397
-0.152,2.095,-0.485,34.912,66.895,216.187
-0.056,1.804,-0.620,30.884,65.613,211.243
0.245,1.671,-0.730,36.621,52.856,178.040
0.343,1.238,-0.276,65.857,72.021,154.724
0.242,0.604,-0.167,77.393,83.008,142.456
-0.009,-0.039,-0.083,73.120,77.209,121.948
-0.041,-0.464,-0.152,61.401,71.777,91.736
0.572,-0.813,-0.230,53.528,56.519,64.880
1.284,-1.203,-0.339,36.682,31.494,47.363
1.516,-1.172,-0.084,14.038,16.235,20.020
1.118,-0.763,0.267,2.686,-3.052,-38.025
0.813,-0.349,0.097,-0.793,-30.029,-82.031
0.601,-0.055,-0.092,-3.357,-50.232,-101.135
0.348,0.017,-0.301,-8.728,-65.308,-119.202
0.160,0.174,-0.354,-9.949,-74.036,-137.939
0.128,0.231,-0.289,-3.174,-73.975,-150.635
0.158,0.176,-0.345,-4.639,-75.073,-162.170
0.142,0.152,-0.361,-15.625,-76.172,-175.049
0.099,0.226,-0.378,-27.466,-78.430,-184.387
0.017,0.356,-0.359,-32.166,-76.904,-191.956
-0.035,0.385,-0.342,-37.476,-75.989,-203.003
-0.006,0.411,-0.325,-39.734,-67.017,-208.862
-0.054,0.421,-0.400,-46.143,-58.655,-221.313
-0.012,0.336,-0.264,-67.017,-81.787,-237.061
0.165,0.501,-0.161,-66.956,-83.801,-238.281
0.065,0.634,-0.164,-57.312,-56.213,-237.793
-0.229,0.501,-0.180,-79.651,-38.940,-253.479
-0.346,0.654,-0.175,-93.872,-24.719,-263.245
-0.366,0.865,-0.185,-79.590,-9.644,-246.948
-0.506,0.938,-0.102,-68.848,-2.441,-228.088
-0.589,1.141,-0.067,-61.035,-7.751,-213.684
-0.599,1.146,-0.025,-65.918,-20.874,-209.839
-0.584,1.337,-0.068,-72.449,-36.682,-198.059
-0.714,1.492,-0.140,-75.562,-56.580,-185.974
-0.971,1.651,-0.165,-70.313,-69.458,-181.335
-1.241,1.712,-0.138,-57.556,-63.354,-182.556
-1.442,1.703,-0.270,-46.326,-52.185,-179.382
-1.564,1.635,-0.352,-32.776,-41.138,-177.185
-1.663,1.442,-0.295,-29.541,-31.067,-176.636
-1.522,1.365,-0.261,-26.733,-20.325,-164.734
-1.332,1.323,-0.276,-17.822,-10.986,-144.592
-1.140,1.206,-0.225,-11.292,-4.211,-125.061
-0.992,1.066,-0.261,-14.771,6.714,-110.718
-0.829,1.260,-0.402,-4.883,16.907,-80.322
-0.809,1.213,-0.505,3.418,21.851,-53.162
-0.728,1.288,-0.356,6.470,11.230,-25.818
-0.604,1.101,-0.352,2.441,1.648,-18.494
-0.547,0.962,-0.383,-6.592,2.380,-25.024
-0.539,1.019,-0.229,-13.977,-1.099,-19.348
-0.517,1.037,-0.200,-18.311,-10.559,-5.981
-0.415,0.852,-0.155,-21.301,-6.775,64.392
-0.385,1.845,-0.465,20.508,29.297,216.187
-0.611,0.680,-0.384,12.268,15.564,178.589
-0.498,0.727,-0.373,-3.845,9.399,194.519
-0.696,0.962,-0.877,-14.648,16.907,222.656
-0.999,0.966,-1.032,-27.649,15.015,239.197
-1.551,0.831,-0.945,-28.320,3.540,237.427
-1.473,1.138,0.020,-1.648,-35.400,215.698
-0.482,1.539,-0.037,-9.644,-63.477,235.718
0.698,2.150,-1.263,1.892,-30.884,266.235
0.910,2.214,-1.326,5.432,25.208,225.342
0.560,0.991,-0.643,-17.639,46.875,163.147
0.508,1.087,-0.441,-52.734,25.879,109.619
0.254,1.441,-0.323,-53.955,3.540,75.195
0.465,1.961,-0.148,-30.945,-26.489,72.388
0.650,1.967,-0.372,1.343,-47.302,77.026
0.347,1.376,-0.394,11.658,-75.317,75.623
-0.802,1.037,-0.529,5.676,-91.187,59.326
-1.100,1.152,-0.469,-0.732,-61.035,30.701
-1.304,1.882,0.383,17.517,-38.147,12.573
-0.811,2.309,0.458,36.011,-26.245,29.846
-0.506,2.098,0.090,31.250,-16.541,48.157
-0.466,1.442,-0.299,9.644,-18.188,44.189
-0.534,0.978,-0.378,-5.371,-21.179,35.889
-0.711,0.474,-0.433,-8.423,-16.113,39.185
-0.711,0.145,-0.327,-9.033,-5.920,37.964
-0.512,0.225,-0.366,-7.812,-8.423,19.043
-0.465,0.653,-0.492,1.038,-15.686,-2.808
-0.577,1.015,-0.456,12.207,-8.240,1.587
-0.477,1.050,-0.251,12.939,-6.897,7.141
-0.412,1.014,-0.292,11.536,-12.756,1.221
-0.409,0.990,-0.406,12.573,-11.353,-0.549
-0.337,0.902,-0.434,11.292,-7.935,-1.221
-0.348,0.851,-0.408,6.165,-4.639,-3.235
-0.438,0.823,-0.343,3.723,-2.441,-6.226
-0.449,0.831,-0.332,4.272,-1.221,-9.399
-0.386,0.854,-0.352,6.836,-0.427,-5.798
-0.338,0.855,-0.378,10.986,0.000,-0.549
-0.332,0.831,-0.385,11.963,0.000,1.770
-0.354,0.809,-0.374,9.766,0.183,3.357
-0.366,0.806,-0.365,7.751,0.427,5.737
-0.376,0.814,-0.351,5.310,1.404,10.376
-0.379,0.816,-0.343,4.944,2.747,12.085
-0.287,0.878,-0.338,1.892,2.808,16.418
-0.248,0.974,-0.384,1.038,4.944,23.987
-0.255,1.036,-0.377,1.160,7.141,25.208
-0.260,1.008,-0.395,0.732,11.475,21.362
-0.340,0.970,-0.359,4.272,14.587,19.775
-0.385,0.926,-0.331,4.883,17.761,27.161
-0.408,0.901,-0.329,8.789,22.217,30.457
-0.391,0.821,-0.291,9.216,27.344,36.255
-0.452,0.798,-0.331,11.414,29.785,38.025
-0.526,0.781,-0.341,15.442,32.349,36.804
-0.521,0.843,-0.352,19.226,40.344,31.799
-0.382,0.818,-0.380,16.113,48.950,37.537
-0.331,0.880,-0.419,19.775,53.833,46.753
-0.281,0.919,-0.439,23.376,57.800,59.875
-0.345,0.889,-0.411,24.719,61.646,77.026
-0.379,0.754,-0.317,23.987,60.364,86.182
-0.633,0.646,-0.182,24.841,54.382,90.515
-0.978,0.599,-0.011,24.231,53.162,86.975
-0.886,0.702,0.143,16.907,60.303,76.111
-0.454,1.055,0.034,17.273,62.378,61.401
-0.218,1.366,-0.164,27.588,52.612,51.636
-0.353,1.264,-0.382,26.123,38.452,62.073
-0.677,1.289,-0.522,11.230,31.555,83.618
-0.654,1.394,-0.563,8.423,38.513,97.961
-0.464,1.479,-0.599,6.958,43.152,111.267
-0.531,1.649,-0.649,3.967,42.603,122.314
-0.738,1.995,-0.683,5.615,49.377,129.395
-0.694,2.234,-0.664,9.460,65.430,141.541
-0.439,2.320,-0.536,16.296,84.595,154.297
-0.131,2.247,-0.329,26.123,104.553,166.870
0.086,2.112,-0.198,37.476,119.507,172.180
0.130,1.812,-0.038,50.598,125.732,163.330
0.159,1.378,-0.005,66.101,126.831,144.897
0.160,0.853,0.048,68.604,119.141,133.667
0.078,0.447,0.016,67.749,102.356,118.896
-0.137,0.140,-0.043,73.547,75.073,90.149
-0.124,-0.191,-0.212,84.961,47.058,54.626
0.009,-0.559,-0.433,90.149,22.766,26.489
-0.057,-0.920,-0.356,81.421,0.793,16.052
0.113,-1.071,-0.188,59.021,-10.498,8.911
0.440,-0.931,-0.171,41.504,-17.822,-7.019
0.741,-0.664,-0.295,30.762,-28.809,-30.518
0.840,-0.378,-0.310,20.203,-38.391,-61.707
0.654,-0.100,-0.278,9.521,-42.786,-96.008
0.365,-0.024,-0.266,2.075,-45.593,-118.347
0.023,0.075,-0.420,4.578,-38.513,-121.948
-0.109,-0.050,-0.529,-6.104,-45.166,-135.498
-0.035,0.062,-0.508,-19.165,-48.645,-164.612
0.025,0.211,-0.382,-27.222,-44.922,-183.350
0.080,0.352,-0.324,-31.006,-41.626,-192.749
0.082,0.414,-0.285,-40.894,-38.391,-201.233
0.091,0.509,-0.235,-53.406,-39.917,-208.679
0.145,0.597,-0.187,-62.866,-41.504,-215.210
0.173,0.673,-0.161,-68.542,-43.457,-222.168
0.151,0.729,-0.125,-71.411,-44.373,-229.004
0.133,0.750,-0.092,-72.632,-45.654,-234.924
0.138,0.747,-0.065,-72.571,-48.401,-240.112
0.119,0.722,-0.030,-70.740,-39.673,-242.493
0.074,0.724,-0.148,-83.618,-39.490,-255.310
0.011,0.624,0.040,-110.229,-80.688,-271.606
0.163,0.968,0.050,-113.098,-93.689,-271.851
0.023,0.989,0.058,-122.314,-75.500,-272.156
-0.286,1.551,-0.110,-100.647,-41.382,-226.501
-0.652,1.785,-0.277,-79.529,-31.616,-185.120
-0.773,1.918,-0.324,-71.106,-28.564,-150.330
-0.822,2.267,-0.111,-41.260,-31.067,-129.578
-0.979,2.090,-0.052,-22.034,-37.842,-141.113
-1.157,1.648,-0.081,-32.959,-47.791,-186.279
-1.086,1.533,-0.171,-47.241,-51.758,-202.454
-1.004,1.643,-0.296,-42.664,-60.181,-193.481
-1.092,1.547,-0.321,-31.616,-55.237,-177.856
-1.217,1.403,-0.269,-25.024,-31.189,-160.522
-1.263,1.354,-0.252,-18.372,-3.357,-142.578
-1.283,1.334,-0.198,-8.057,21.179,-122.925
-1.271,1.307,-0.187,1.587,41.199,-102.356
-1.255,1.256,-0.293,11.536,51.941,-82.642
-1.157,1.117,-0.370,19.531,58.777,-67.505
-0.957,0.926,-0.360,17.517,64.026,-55.664
-0.791,0.841,-0.272,9.705,65.979,-46.570
-0.662,0.878,-0.195,2.747,63.660,-36.621
-0.552,0.970,-0.083,0.305,56.763,-24.048
-0.457,1.046,-0.053,3.296,45.044,-9.094
-0.371,1.080,-0.041,8.728,25.940,8.484
-0.290,1.022,0.009,21.973,26.367,51.514
-0.201,1.626,-0.241,65.063,46.387,161.255
-0.376,0.761,-0.072,54.199,21.545,140.625
-0.291,0.817,-0.175,49.072,5.981,164.307
-0.382,0.918,-0.562,57.861,-0.183,199.524
-0.826,0.851,-0.755,46.021,-17.334,205.933
-1.398,0.907,-0.741,55.481,-35.645,213.196
-1.258,1.240,-0.150,68.298,-63.660,218.689
-0.570,1.323,-0.504,36.499,-48.279,200.195
-0.004,1.573,-1.044,10.742,-2.686,177.856
0.781,1.572,-1.461,-2.380,28.076,178.101
0.991,1.465,-1.188,-51.819,44.739,173.462
0.571,1.222,-1.005,-93.262,37.476,156.677
0.143,1.403,-0.858,-96.863,17.273,134.155
0.332,1.771,-0.564,-69.153,-6.958,106.995
0.233,1.692,-0.381,-38.330,-24.170,86.121
-0.245,1.307,0.003,-14.160,-33.325,80.261
-0.612,1.228,0.277,4.211,-31.372,74.890
-0.306,1.127,0.122,9.705,-21.484,64.941
0.152,1.210,-0.304,13.306,-37.842,55.542

0.052,0.922,-0.351,2.380,5.920,19.348
0.061,0.949,-0.364,3.662,4.944,22.644
0.045,0.940,-0.343,5.249,3.540,25.330
0.023,0.928,-0.347,6.287,2.991,27.161
0.015,0.940,-0.354,7.568,2.991,28.931
-0.014,0.948,-0.342,9.399,4.822,30.457
-0.023,0.950,-0.310,10.620,7.141,32.410
-0.007,0.969,-0.299,11.902,9.277,34.302
0.017,0.964,-0.307,12.329,9.766,36.316
-0.014,0.958,-0.315,12.024,8.301,38.879
-0.042,0.937,-0.318,11.658,7.324,41.138
-0.058,0.931,-0.319,12.451,6.653,43.030
-0.028,0.935,-0.333,13.489,5.981,44.617
-0.023,0.962,-0.349,15.564,5.188,47.424
-0.065,1.004,-0.328,18.494,6.042,52.917
0.047,1.008,-0.298,19.958,10.498,58.594
0.112,0.983,-0.362,21.851,8.240,67.322
-0.034,0.931,-0.362,20.020,5.188,76.904
0.041,0.929,-0.325,16.479,5.798,83.923
0.133,0.922,-0.379,16.296,4.944,88.379
0.008,0.900,-0.278,17.822,7.385,91.980
-0.025,0.914,-0.234,17.578,11.658,93.384
-0.267,0.956,-0.227,19.531,13.245,93.933
-0.446,0.966,-0.165,18.860,18.921,93.262
-0.322,0.996,-0.161,16.418,28.442,92.896
-0.147,1.049,-0.167,18.494,33.508,95.398
-0.058,1.035,-0.249,21.973,31.433,98.328
-0.210,1.004,-0.271,21.729,27.649,101.318
-0.251,1.051,-0.224,18.311,27.405,104.004
-0.157,1.167,-0.207,19.775,27.283,107.544
-0.105,1.161,-0.158,23.437,26.367,113.525
-0.163,1.063,-0.152,23.926,24.109,120.178
-0.384,0.932,-0.222,20.569,18.799,124.451
-0.757,0.856,-0.290,19.165,16.357,124.634
-0.917,0.756,-0.263,15.686,23.804,118.652
-0.562,0.945,-0.169,17.700,34.424,108.337
-0.247,1.275,-0.036,24.719,34.363,109.619
-0.248,1.457,-0.029,25.085,29.724,117.188
-0.321,1.450,-0.160,20.020,24.536,128.296
-0.310,1.415,-0.292,10.437,22.339,139.587
-0.250,1.509,-0.385,6.958,23.376,149.109
-0.299,1.476,-0.453,5.981,30.151,159.973
-0.502,1.434,-0.527,1.160,40.466,165.894
-0.684,1.715,-0.535,-6.104,55.847,168.518
-0.559,2.199,-0.602,-8.057,71.350,173.828
-0.180,2.622,-0.645,0.610,83.862,183.838
0.044,2.676,-0.583,6.531,97.351,201.599
0.181,2.462,-0.577,4.944,109.619,212.769
0.374,2.079,-0.556,0.244,106.506,208.740
0.510,1.757,-0.565,16.418,86.670,181.641
0.479,1.038,-0.081,49.194,86.731,158.325
0.478,0.117,0.018,59.143,81.238,144.165
0.391,-0.536,0.034,52.490,75.439,116.455
0.584,-1.018,0.037,32.654,72.205,75.195
0.898,-1.137,0.221,29.663,69.641,40.771
1.361,-1.318,0.069,27.222,50.781,16.479
1.624,-1.080,0.048,17.334,21.606,-30.151
1.372,-0.652,0.061,10.498,-0.061,-95.581
0.808,-0.376,-0.054,-6.592,-21.484,-133.667
0.367,-0.008,-0.074,-9.521,-39.795,-140.015
0.265,-0.115,-0.316,-11.047,-55.237,-143.555
0.308,-0.213,-0.470,-22.644,-66.162,-163.452
0.258,-0.094,-0.307,-26.001,-67.871,-181.763
0.175,0.067,-0.274,-26.367,-69.519,-196.655
0.145,0.196,-0.331,-31.555,-69.580,-209.717
0.089,0.314,-0.385,-40.161,-68.420,-218.384
0.045,0.419,-0.326,-47.852,-66.895,-224.670
0.088,0.492,-0.283,-52.979,-65.918,-231.934
0.131,0.522,-0.309,-56.091,-64.941,-241.455
0.106,0.519,-0.276,-60.974,-61.768,-251.831
-0.019,0.505,-0.270,-74.158,-55.237,-251.648
-0.094,0.750,-0.219,-82.520,-54.993,-260.010
-0.205,0.447,-0.133,-129.395,-48.828,-318.298
-0.078,0.972,-0.168,-118.896,-37.537,-276.917
-0.290,1.724,-0.037,-68.359,-53.162,-214.111
-0.477,1.467,-0.096,-78.369,-68.848,-195.312
-0.579,1.794,-0.231,-92.224,-72.815,-196.106
-0.965,2.161,-0.291,-74.219,-76.843,-195.984
-1.188,2.381,-0.250,-33.752,-78.491,-181.274
-1.678,1.908,-0.218,-11.475,-67.261,-199.951
-1.670,1.579,-0.214,-23.193,-43.640,-216.797
-1.371,1.667,-0.333,-20.569,-30.518,-211.304
-1.248,1.595,-0.355,-16.907,-28.870,-193.298
-1.219,1.498,-0.287,-17.700,-23.437,-168.823
-1.278,1.472,-0.306,-15.259,-17.212,-140.076
-1.326,1.480,-0.338,-6.958,-13.855,-111.572
-1.422,1.417,-0.433,0.916,-11.475,-84.961
-1.526,1.303,-0.484,5.615,-5.676,-61.157
-1.494,1.153,-0.531,7.202,-0.183,-42.786
-1.335,0.978,-0.520,2.808,8.118,-27.344
-1.146,0.928,-0.432,-2.563,14.832,-11.414
-0.937,0.940,-0.300,-4.578,7.385,4.089
-0.787,0.921,-0.288,-6.714,-5.188,18.738
-0.700,0.965,-0.236,-4.761,-20.142,35.828
-0.592,0.983,-0.261,-1.038,-38.635,55.786
-0.067,0.907,-0.162,-15.137,-60.852,91.675
-0.174,1.627,-0.559,7.141,-8.057,194.336
-0.584,0.678,-0.328,1.343,-7.263,206.421
-0.763,0.528,-0.418,-18.860,-21.179,206.482
-0.764,0.957,-0.711,-18.066,-42.542,260.376
-0.664,1.088,-0.512,-8.362,-61.646,287.537
-0.143,1.156,-0.663,-61.218,-22.949,276.062
-0.202,1.451,-1.208,-94.666,28.320,249.512
-0.045,1.361,-1.417,-105.347,47.485,237.427
0.270,1.440,-0.974,-91.125,77.332,214.355
0.499,1.957,-0.778,-59.448,80.688,187.866
0.479,1.582,-0.342,-30.762,54.199,128.479
0.434,1.741,0.131,-18.433,11.536,96.741
0.559,2.047,0.061,19.348,-20.691,95.398
0.159,2.032,0.092,61.890,-63.965,89.783
-0.262,1.325,-0.402,57.922,-91.187,89.600
-0.631,1.067,-0.858,27.893,-85.022,74.707
-0.554,1.469,-0.835,12.451,-76.965,42.786
-0.674,2.200,-0.225,23.254,-64.392,28.503
-0.950,2.405,0.136,25.085,-39.734,46.265
-1.096,1.783,0.066,16.235,-8.362,40.161
-0.717,0.944,-0.101,0.000,3.418,27.100
-0.437,0.512,-0.452,-2.380,-1.038,31.433
-0.508,0.166,-0.528,0.122,-5.310,46.631
-0.624,0.107,-0.427,-2.197,-7.019,30.701
-0.587,0.416,-0.472,1.404,-8.728,1.770
-0.560,0.826,-0.514,10.437,-9.155,-6.348
-0.525,0.978,-0.441,14.160,-8.728,-4.578
-0.489,0.912,-0.381,4.944,-9.399,-5.371
-0.393,0.993,-0.415,2.014,-10.010,-8.972
-0.367,1.007,-0.414,5.798,-11.047,-9.583
-0.427,0.993,-0.368,7.629,-9.460,-8.484
-0.421,0.950,-0.362,8.118,-7.141,-11.658
-0.428,0.887,-0.372,7.385,-6.348,-16.968
-0.426,0.847,-0.368,4.639,-3.906,-17.944
-0.377,0.827,-0.374,2.930,-0.366,-17.212
-0.329,0.818,-0.380,2.686,1.709,-16.846
-0.351,0.794,-0.388,2.380,4.089,-15.686
-0.390,0.767,-0.362,3.296,6.104,-12.390
-0.357,0.739,-0.330,2.686,5.676,-11.536
-0.360,0.710,-0.319,0.916,2.869,-10.376
-0.364,0.696,-0.301,0.183,2.075,-7.080
-0.363,0.682,-0.317,1.160,3.235,-3.113
-0.365,0.676,-0.339,3.357,3.662,3.662
-0.368,0.680,-0.350,7.019,5.676,12.634
-0.353,0.711,-0.367,12.390,11.475,21.606
-0.296,0.737,-0.400,16.663,17.883,32.043
-0.251,0.740,-0.430,16.052,20.081,41.687
-0.196,0.803,-0.379,11.963,14.343,45.471
-0.243,0.932,-0.343,13.977,8.850,42.603
-0.277,1.012,-0.341,14.893,4.822,41.931
-0.337,1.113,-0.246,15.137,5.127,39.124
-0.479,1.176,-0.140,19.531,9.644,35.217
-0.532,1.150,-0.162,17.761,16.907,36.499
-0.486,1.076,-0.304,16.235,21.118,36.194
-0.382,1.087,-0.479,18.433,20.447,39.124
-0.235,1.112,-0.602,26.428,21.606,39.185
-0.092,0.981,-0.583,25.208,23.621,48.035
-0.149,1.008,-0.502,18.982,23.621,58.411
-0.525,1.011,-0.437,28.870,28.381,67.688
-0.894,0.953,-0.366,31.677,44.373,85.571
-0.766,0.840,-0.146,32.837,59.448,87.830
-0.539,0.814,-0.074,45.227,64.575,90.088
-0.479,0.680,-0.056,45.349,65.308,105.896
-0.609,0.480,-0.119,37.415,59.509,116.089
-0.712,0.490,-0.164,26.062,51.514,105.103
-0.555,0.818,-0.299,32.349,45.227,79.529
-0.292,1.202,-0.415,47.485,37.964,62.012
-0.363,1.360,-0.435,41.382,33.813,69.214
-0.751,1.424,-0.490,34.546,35.767,83.252
-0.977,1.549,-0.522,24.292,42.358,95.459
-0.703,1.998,-0.566,21.912,48.889,102.966
-0.434,2.425,-0.558,32.104,53.162,113.220
-0.378,2.553,-0.396,39.490,64.087,137.878
-0.609,2.462,-0.324,42.908,79.468,164.001
-0.389,2.248,-0.273,47.119,96.375,176.453
0.023,2.021,-0.216,52.185,97.412,176.331
0.492,1.845,-0.745,63.171,50.293,148.254
0.472,1.249,0.289,92.224,47.729,139.893
0.295,0.259,0.292,75.928,58.594,147.949
0.275,-0.510,-0.215,58.655,29.358,128.357
0.815,-0.884,-0.653,45.349,-7.263,98.511
1.339,-1.153,-0.465,58.960,-5.432,78.613
1.458,-1.281,0.016,76.843,18.066,46.448
1.171,-1.185,0.221,69.336,45.959,-28.198
0.960,-0.861,0.197,39.001,54.382,-107.361
0.810,-0.210,0.120,13.672,34.912,-144.043
0.653,0.239,0.008,-2.197,1.465,-151.550
0.614,0.451,-0.168,-6.958,-30.334,-154.114
0.382,0.480,-0.259,-2.136,-47.852,-165.649
-0.011,0.501,-0.358,0.366,-55.664,-181.885
-0.320,0.504,-0.480,-4.700,-56.702,-195.862
-0.432,0.487,-0.575,-17.761,-52.490,-205.872
-0.400,0.502,-0.641,-31.372,-47.913,-210.999
-0.363,0.558,-0.639,-41.870,-37.048,-217.957
-0.393,0.591,-0.547,-49.805,-24.597,-229.309
-0.418,0.629,-0.423,-53.833,-10.193,-240.845
-0.382,0.631,-0.299,-58.289,3.235,-247.314
-0.335,0.683,-0.209,-63.477,10.376,-250.549
-0.268,0.765,-0.148,-70.862,11.169,-252.380
-0.247,0.845,-0.124,-85.999,10.071,-248.474
-0.198,0.998,-0.095,-92.163,7.202,-243.408
-0.088,1.117,-0.034,-100.952,3.723,-243.530
-0.087,1.348,0.038,-103.638,-6.409,-243.591
-0.271,1.510,-0.005,-103.760,-21.729,-233.948
-0.452,1.590,-0.050,-102.783,-34.180,-217.468
-0.605,1.719,-0.115,-92.224,-40.588,-195.984
-0.835,1.863,-0.179,-69.031,-43.335,-173.950
-1.018,1.827,-0.219,-46.570,-40.955,-161.926
-1.257,1.567,-0.211,-34.729,-31.799,-171.997
-1.329,1.276,-0.185,-42.480,-10.315,-186.096
-1.126,1.270,-0.251,-46.387,10.132,-186.707
-1.010,1.238,-0.255,-44.312,22.034,-174.377
-1.021,1.184,-0.278,-46.082,30.457,-156.494
-1.110,1.182,-0.275,-45.349,40.344,-138.977
-1.128,1.166,-0.283,-41.809,50.049,-125.549
-1.133,1.149,-0.301,-33.020,59.265,-115.112
-1.089,1.068,-0.325,-24.048,69.458,-105.225
-0.977,0.942,-0.287,-16.724,79.468,-93.689
-0.833,0.811,-0.247,-15.686,93.201,-83.679
-0.668,0.855,-0.133,-18.921,89.111,-62.622
-0.557,0.773,-0.127,-21.362,89.539,-59.204
-0.540,0.798,-0.191,-23.926,97.290,-55.054
-0.474,0.923,-0.171,-20.752,86.609,-37.842
-0.403,0.961,-0.227,-21.301,75.500,-21.973
-0.410,0.991,-0.208,-21.484,60.913,-9.094
-0.381,0.980,-0.225,-20.203,46.509,1.160
-0.366,1.007,-0.212,-18.860,36.560,10.132
-0.384,1.061,-0.163,-16.479,27.466,18.799
-0.413,1.072,-0.066,-23.132,10.803,37.598
0.169,0.964,0.059,-56.885,4.761,113.098
-0.200,1.509,-0.272,-31.494,56.946,210.083
-1.092,0.730,-0.068,-24.902,55.542,184.692
-0.681,1.134,-0.207,-21.545,52.490,200.378
-0.314,1.451,-0.236,10.315,37.903,239.563
0.022,1.677,-0.038,57.129,-2.686,263.245
0.613,1.528,-0.504,84.229,-15.747,277.283
0.132,1.496,-0.693,95.276,3.906,278.198
0.114,1.426,-0.856,59.265,19.043,239.868
0.063,1.054,-0.905,2.136,25.208,194.946
0.237,0.957,-1.054,-46.692,3.601,139.282
0.206,1.298,-0.989,-55.237,-21.301,92.041
0.042,1.609,-0.671,-35.217,-27.954,80.017

-0.511,0.875,-0.300,16.785,38.086,95.459
-0.352,1.065,-0.248,15.869,39.490,93.750
-0.073,1.222,-0.196,22.949,39.734,99.243
-0.131,1.092,-0.238,23.010,35.217,112.305
-0.563,1.076,-0.299,17.212,36.011,122.131
-0.701,1.045,-0.291,15.930,46.326,130.127
-0.517,0.961,-0.194,16.724,53.467,134.583
-0.323,0.912,-0.073,16.846,55.969,135.376
-0.281,0.811,-0.137,16.663,52.185,135.498
-0.685,0.684,-0.295,10.620,44.678,129.517
-0.957,0.725,-0.369,4.211,48.096,120.178
-0.809,1.046,-0.330,10.559,59.082,108.887
-0.494,1.450,-0.152,20.447,67.200,102.539
-0.268,1.680,-0.103,24.719,59.204,117.981
-0.667,1.722,-0.128,20.935,44.861,137.512
-0.876,1.937,-0.208,18.494,40.771,149.902
-0.691,2.307,-0.174,25.452,43.152,161.072
-0.538,2.486,-0.087,33.203,46.692,174.866
-0.385,2.513,-0.032,41.321,49.438,190.308
-0.274,2.393,0.011,48.828,54.504,206.116
-0.176,2.177,-0.018,50.964,64.148,215.027
-0.002,1.909,-0.014,53.223,78.552,207.458
0.105,1.606,-0.161,59.875,86.304,187.073
0.172,1.109,-0.311,60.608,79.590,160.278
0.104,0.775,-0.283,64.209,62.012,122.437
0.027,0.133,-0.182,69.092,55.847,97.717
-0.121,-0.412,-0.103,64.331,51.636,86.060
-0.336,-0.622,-0.095,48.157,32.776,59.326
-0.318,-0.779,-0.252,29.358,1.770,37.415
0.193,-0.663,-0.524,23.071,-26.245,19.409
0.591,-0.596,-0.422,20.447,-24.475,-4.883
0.660,-0.513,-0.202,13.123,-19.043,-32.166
0.439,-0.412,-0.103,5.310,-19.714,-56.763
0.230,-0.355,-0.112,-4.822,-22.278,-79.529
0.167,-0.301,-0.280,-11.780,-24.963,-98.694
0.138,-0.216,-0.347,-12.207,-24.292,-117.554
0.073,-0.143,-0.351,-13.306,-18.250,-136.719
0.044,-0.068,-0.387,-15.930,-16.174,-152.588
0.012,-0.025,-0.410,-23.865,-15.320,-164.368
-0.042,0.077,-0.377,-33.020,-13.428,-173.401
-0.102,0.211,-0.322,-38.330,-10.620,-180.481
-0.127,0.329,-0.280,-41.199,-10.620,-186.707
-0.123,0.409,-0.249,-43.518,-14.343,-192.139
-0.132,0.472,-0.214,-46.021,-18.127,-196.350
-0.164,0.523,-0.168,-50.720,-21.973,-198.975
-0.166,0.594,-0.117,-54.810,-26.123,-200.012
-0.140,0.613,-0.062,-57.800,-31.738,-200.989
-0.127,0.640,-0.013,-59.814,-34.546,-203.613
-0.135,0.650,0.021,-60.913,-35.706,-206.177
-0.138,0.674,0.041,-58.960,-43.762,-208.435
-0.185,0.636,0.086,-65.674,-65.979,-218.811
-0.137,0.612,0.110,-79.041,-94.727,-226.074
-0.077,0.688,0.081,-79.895,-104.370,-215.759
-0.199,0.936,-0.093,-64.209,-85.632,-192.139
-0.392,0.982,-0.180,-62.073,-73.669,-182.312
-0.472,1.077,-0.221,-63.843,-75.012,-179.565
-0.535,1.313,-0.271,-56.946,-71.899,-172.119
-0.651,1.422,-0.239,-46.326,-74.768,-166.077
-0.758,1.532,-0.253,-36.682,-81.787,-163.086
-0.778,1.541,-0.313,-31.677,-89.111,-159.363
-0.788,1.552,-0.382,-19.470,-92.407,-152.771
-0.969,1.353,-0.363,-17.761,-88.745,-156.799
-1.083,1.193,-0.411,-21.057,-73.975,-160.828
-0.999,1.166,-0.506,-22.461,-54.565,-158.325
-0.942,1.130,-0.468,-23.193,-32.654,-148.254
-0.980,1.155,-0.345,-25.940,-9.216,-133.545
-1.086,1.208,-0.326,-25.024,8.606,-115.723
-1.152,1.219,-0.270,-17.578,24.048,-97.961
-1.099,1.147,-0.248,-10.559,34.363,-83.069
-0.977,1.069,-0.254,-9.216,39.124,-70.435
-0.873,1.056,-0.267,-11.108,38.940,-57.251
-0.817,1.097,-0.230,-12.573,35.767,-43.030
-0.779,1.104,-0.227,-12.512,31.006,-29.419
-0.722,1.066,-0.231,-11.292,25.269,-17.822
-0.646,1.047,-0.201,-8.484,19.226,-8.484
-0.572,1.036,-0.161,-5.493,11.719,0.061
-0.457,1.051,-0.157,-2.991,4.822,9.155
-0.344,1.069,-0.193,-6.775,-7.690,23.132
-0.054,0.899,-0.099,-9.766,11.536,99.854
-0.179,1.484,-0.539,23.376,52.185,212.280
-0.483,0.646,-0.158,9.460,39.185,192.383
-0.556,0.893,-0.453,-2.136,40.161,226.074
-0.663,0.992,-0.758,-4.822,41.931,263.550
-1.070,0.896,-0.427,-26.123,25.391,269.836
-1.744,0.916,0.022,-24.658,-1.831,291.382
-0.731,1.515,0.088,-45.288,15.625,294.861
-0.052,1.498,-0.858,-36.316,54.626,301.514
0.145,1.846,-0.729,31.372,56.213,293.762
0.161,1.890,-0.649,54.260,66.895,302.185
-0.041,1.375,-0.422,21.667,69.580,257.812
0.112,1.350,-0.486,-3.052,42.725,208.435
0.433,1.705,-0.643,2.625,-1.587,162.842
0.489,1.605,-0.609,7.874,-50.537,105.347
-0.160,1.134,-0.425,-2.808,-79.285,76.599
-0.615,1.279,-0.413,-21.057,-81.482,58.716
-0.481,1.654,-0.605,-20.081,-71.655,35.767
-0.362,1.589,-0.708,-11.108,-75.256,19.531
-0.405,1.474,-0.576,-8.240,-80.505,16.479
-0.847,1.244,-0.283,-2.808,-76.965,17.151
-1.221,0.969,0.016,-1.465,-63.232,15.808
-1.176,0.934,0.042,2.197,-42.358,9.399
-0.880,0.879,-0.001,7.690,-38.818,2.075
-0.802,0.941,-0.192,15.686,-36.865,2.380
-0.700,0.878,-0.367,19.897,-38.391,3.540
-0.648,0.725,-0.383,12.695,-40.161,1.343
-0.718,0.631,-0.226,5.798,-30.884,-1.404
-0.780,0.612,-0.233,1.404,-15.259,0.549
-0.673,0.657,-0.301,2.075,-8.118,0.244
-0.622,0.723,-0.350,6.104,-6.409,-2.502
-0.568,0.743,-0.361,7.629,-7.385,-4.211
-0.525,0.790,-0.375,7.507,-8.484,-5.005
-0.486,0.824,-0.400,6.409,-9.766,-3.906
-0.421,0.917,-0.368,6.897,-10.010,-2.197
-0.425,0.933,-0.308,8.240,-6.958,-2.380
-0.519,0.807,-0.301,6.653,-4.395,-2.075
-0.568,0.735,-0.309,3.540,-2.625,-2.319
-0.538,0.745,-0.332,2.747,-1.709,-2.197
-0.500,0.744,-0.344,3.723,-1.831,-0.427
-0.482,0.729,-0.332,1.770,-1.038,0.793
-0.481,0.726,-0.339,-0.610,-0.427,2.014
-0.495,0.742,-0.320,-2.991,0.488,4.395
-0.515,0.782,-0.267,-3.845,2.441,4.639
-0.475,0.818,-0.289,-4.761,4.333,6.775
-0.444,0.844,-0.321,-5.249,5.615,8.118
-0.410,0.877,-0.360,-5.554,7.751,7.935
-0.371,0.880,-0.384,-6.714,10.254,11.902
-0.374,0.885,-0.406,-8.789,11.658,16.663
-0.380,0.852,-0.347,-9.460,13.062,18.982
-0.394,0.873,-0.327,-10.864,13.306,22.095
-0.508,0.857,-0.262,-7.507,15.442,20.264
-0.495,0.828,-0.301,-7.568,15.259,13.184
-0.477,0.832,-0.342,-5.432,13.977,9.216
-0.454,0.911,-0.368,-2.441,14.893,9.155
-0.411,1.009,-0.378,-1.160,15.808,13.916
-0.406,1.041,-0.374,4.028,16.357,10.376
-0.428,1.036,-0.379,13.916,14.221,-2.136
-0.548,0.823,-0.428,15.686,8.728,9.583
-0.836,0.790,-0.406,12.573,11.780,26.855
-0.833,0.918,-0.323,13.611,22.888,22.705
-0.438,0.954,-0.338,16.113,30.823,23.376
-0.230,0.946,-0.407,21.423,29.236,25.818
-0.464,0.667,-0.367,13.184,30.457,53.528
-0.842,0.526,-0.321,7.935,31.189,55.603
-0.928,0.633,-0.318,4.822,38.025,51.208
-0.463,1.049,-0.353,10.132,42.664,39.368
-0.126,1.256,-0.337,23.560,39.307,38.269
-0.526,1.158,-0.286,14.343,34.729,69.031
-0.939,0.894,-0.323,4.517,37.170,96.741
-0.851,0.752,-0.309,-5.310,44.861,104.736
-0.597,0.888,-0.275,-2.380,45.654,101.440
-0.600,0.941,-0.301,-2.075,44.617,99.976
-0.685,1.050,-0.339,0.488,46.387,96.436
-0.666,1.255,-0.394,-0.549,49.927,95.215
-0.660,1.552,-0.384,4.883,54.626,97.839
-0.654,1.879,-0.364,7.874,60.608,106.628
-0.525,2.057,-0.308,11.963,69.336,117.188
-0.427,2.132,-0.278,18.677,78.979,123.474
-0.440,2.106,-0.236,27.588,88.562,126.221
-0.435,1.951,-0.131,38.513,104.187,122.131
-0.298,1.681,-0.032,50.537,121.216,115.845
-0.269,1.370,0.131,64.026,130.249,111.450
-0.352,1.054,0.217,75.195,131.836,106.262
-0.477,0.753,0.185,87.036,125.366,95.398
-0.423,0.431,0.051,96.069,106.995,81.482
-0.325,0.042,-0.202,97.290,67.383,68.970
-0.416,-0.345,-0.294,86.609,17.517,72.083
-0.545,-0.483,-0.122,67.139,-15.625,77.087
-0.493,-0.395,-0.274,62.927,-34.241,75.378
-0.345,-0.425,-0.489,57.190,-52.002,65.308
-0.281,-0.465,-0.591,39.978,-65.308,50.537
-0.262,-0.298,-0.628,27.832,-65.918,32.166
-0.153,-0.183,-0.691,23.682,-54.871,10.559
0.094,-0.167,-0.840,22.888,-34.363,-7.141
0.326,-0.234,-0.813,21.729,3.845,-23.071
0.385,-0.460,-0.535,8.911,59.448,-50.842
0.353,-0.500,-0.296,-5.066,85.693,-79.956
0.383,-0.190,-0.317,-2.197,92.529,-105.286
0.472,-0.048,-0.124,-12.817,81.970,-133.911
0.531,0.065,0.108,-33.020,65.308,-162.415
0.535,0.338,0.159,-38.696,44.861,-174.438
0.479,0.512,0.090,-36.499,22.888,-173.828
0.406,0.510,-0.037,-40.466,-0.366,-175.110
0.311,0.491,-0.131,-49.805,-24.475,-182.922
0.211,0.532,-0.138,-54.810,-37.354,-189.758
0.157,0.571,-0.167,-54.993,-43.396,-196.472
0.200,0.551,-0.226,-57.251,-52.124,-206.604
0.228,0.538,-0.252,-63.232,-63.538,-216.736
0.222,0.587,-0.235,-68.115,-75.134,-224.304
0.193,0.625,-0.219,-70.923,-81.909,-232.483
0.141,0.638,-0.252,-72.998,-83.679,-243.103
0.083,0.647,-0.297,-75.256,-81.116,-252.563
-0.006,0.638,-0.328,-83.191,-75.806,-257.080
-0.049,0.688,-0.288,-89.355,-66.589,-259.827
-0.067,0.874,-0.344,-94.177,-52.002,-264.160
-0.106,0.938,-0.237,-105.042,-51.331,-276.001
-0.154,1.211,-0.329,-110.535,-49.438,-281.494
-0.431,1.485,-0.482,-130.920,-42.175,-268.921
-0.862,2.082,-0.396,-100.769,-22.888,-220.215
-1.166,2.326,-0.208,-42.908,0.549,-187.195
-1.278,2.028,-0.294,-18.677,-4.150,-179.077
-1.218,1.727,-0.333,-14.709,-26.184,-193.909
-1.157,1.411,-0.370,-29.968,-46.082,-209.839
-1.036,1.422,-0.401,-43.762,-55.420,-215.088
-0.962,1.494,-0.414,-50.171,-46.387,-205.811
-1.079,1.549,-0.408,-53.040,-28.259,-184.265
-1.314,1.628,-0.396,-47.668,-9.705,-153.137
-1.568,1.645,-0.374,-32.166,3.967,-123.596
-1.601,1.428,-0.487,-16.052,15.137,-98.877
-1.463,1.160,-0.563,-10.010,26.245,-80.017
-1.255,0.948,-0.560,-16.113,36.499,-65.918
-1.078,0.927,-0.362,-24.109,45.898,-51.025
-0.955,0.935,-0.252,-29.053,52.002,-34.668
-0.840,0.968,-0.241,-30.151,51.147,-17.761
-0.735,1.026,-0.269,-26.550,44.250,2.869
-0.689,1.088,-0.250,-20.752,37.292,24.658
-0.664,1.156,-0.229,-14.465,31.616,43.274
-0.400,1.166,-0.162,-18.921,17.029,72.815
-0.491,1.266,-0.183,-12.817,24.719,128.662
-0.600,1.134,-0.391,-5.310,46.387,169.434
-0.745,0.657,-0.363,-12.878,16.846,138.733
-0.736,1.004,-0.240,-16.724,-30.273,160.583
-0.900,1.354,0.047,11.353,-63.965,183.044
-0.211,1.575,0.210,15.137,-55.786,166.199
-0.090,1.505,-0.467,-3.906,5.371,150.024
0.583,1.643,-0.560,-3.296,40.405,173.157
1.026,1.857,-0.622,-7.812,51.941,215.942
0.631,1.755,-0.646,-7.629,49.133,232.361
0.407,1.331,-0.667,-9.216,28.137,184.509
0.395,1.372,-0.490,-8.728,-9.827,135.437
0.444,1.491,-0.605,-2.258,-35.156,112.366
0.091,1.305,-0.707,4.150,-36.926,104.309
-0.360,1.074,-0.715,-3.357,-40.894,94.055
-0.474,1.397,-0.657,-5.310,-38.879,71.838
-0.120,1.387,-0.752,-4.883,-25.940,59.204
-0.047,1.454,-0.498,-2.380,-27.222,43.030
-0.168,1.119,-0.441,-8.423,-32.471,23.499
-0.675,0.880,-0.428,-5.859,-26.306,17.822
-1.010,0.924,-0.217,4.822,-4.272,-3.540

-0.042,0.923,-0.259,14.526,-1.770,55.054
-0.075,0.907,-0.245,13.977,-2.197,57.861
-0.251,0.930,-0.184,14.099,-0.244,58.960
-0.272,0.944,-0.172,13.977,5.188,59.082
-0.188,0.991,-0.222,14.771,10.864,59.570
0.005,1.042,-0.271,18.494,16.174,62.317
0.161,1.000,-0.309,20.569,17.456,68.542
-0.010,0.911,-0.366,18.066,16.602,75.684
-0.124,0.925,-0.338,18.066,18.860,79.651
-0.249,0.995,-0.248,25.085,25.085,82.886
-0.232,0.977,-0.245,32.349,30.151,88.501
-0.242,0.955,-0.247,36.194,35.156,93.201
-0.306,0.981,-0.257,39.978,40.955,97.412
-0.525,0.937,-0.169,42.297,47.058,103.516
-0.492,0.880,-0.053,38.269,54.382,106.445
-0.381,0.774,-0.102,31.799,53.589,103.271
-0.306,0.753,-0.080,21.973,48.340,91.064
-0.259,0.948,-0.048,18.127,47.119,79.285
-0.068,1.068,-0.139,21.423,45.471,81.604
-0.048,1.078,-0.278,19.226,40.039,91.614
-0.458,1.122,-0.152,12.634,40.588,101.196
-0.645,1.159,-0.038,8.057,51.392,107.239
-0.235,1.120,-0.122,9.827,60.364,117.004
-0.224,0.952,-0.290,12.146,56.152,124.146
-0.672,0.825,-0.288,5.859,56.519,122.314
-0.831,0.884,-0.250,-0.793,65.857,118.774
-0.587,1.024,-0.215,-0.427,68.420,112.061
-0.287,1.369,-0.130,2.747,61.829,107.422
-0.225,1.704,-0.202,6.409,49.255,115.540
-0.524,1.839,-0.373,6.042,38.269,129.944
-0.744,2.066,-0.428,9.277,35.889,141.541
-0.696,2.202,-0.513,13.062,40.955,154.541
-0.499,2.281,-0.524,22.400,53.345,165.955
-0.219,2.013,-0.437,24.414,72.205,174.622
0.057,1.849,-0.472,30.029,91.064,173.096
0.234,1.516,-0.388,35.400,104.980,162.537
0.350,1.099,-0.257,32.959,108.643,141.846
0.314,0.757,-0.211,42.236,106.018,116.577
0.292,0.453,-0.211,49.194,90.698,80.811
0.167,-0.052,0.040,48.706,80.322,35.767
0.083,-0.489,-0.110,31.982,66.711,12.329
0.256,-0.627,-0.115,16.479,41.870,-11.536
0.734,-0.582,0.003,10.559,15.503,-37.659
0.998,-0.777,-0.079,-4.150,-2.686,-53.467
0.986,-0.539,-0.041,-21.545,-21.606,-76.477
0.853,-0.219,-0.177,-33.630,-48.218,-103.577
0.771,0.010,-0.413,-46.692,-68.787,-124.695
0.675,0.058,-0.479,-59.631,-76.477,-141.235
0.400,0.077,-0.384,-66.833,-75.378,-157.593
0.157,0.135,-0.337,-67.505,-66.162,-172.974
0.066,0.216,-0.296,-69.580,-54.321,-188.232
0.125,0.311,-0.215,-74.097,-45.349,-201.172
0.214,0.412,-0.168,-77.881,-39.124,-208.862
0.253,0.487,-0.124,-83.130,-36.377,-212.891
0.239,0.559,-0.090,-88.440,-36.682,-217.041
0.248,0.591,-0.061,-93.018,-38.696,-222.595
0.283,0.595,-0.072,-98.511,-42.786,-228.760
0.285,0.710,-0.118,-101.440,-47.180,-235.962
0.215,0.683,-0.008,-115.723,-74.707,-256.287
0.213,0.950,0.102,-119.202,-102.356,-264.221
0.101,1.147,0.081,-102.112,-94.604,-251.648
-0.165,1.355,0.042,-83.008,-77.759,-226.501
-0.495,1.446,0.070,-79.712,-78.796,-202.942
-0.621,1.656,-0.005,-75.317,-88.318,-175.842
-0.766,1.920,-0.208,-62.866,-100.281,-163.574
-0.869,2.118,-0.269,-36.743,-107.483,-143.494
-1.202,1.991,-0.353,-14.954,-104.309,-163.818
-1.349,1.564,-0.365,-24.353,-85.938,-198.425
-1.175,1.679,-0.438,-23.499,-66.467,-203.003
-1.141,1.578,-0.502,-12.817,-50.842,-187.683
-1.197,1.384,-0.445,-13.245,-23.865,-166.992
-1.359,1.328,-0.410,-15.503,11.719,-151.794
-1.410,1.299,-0.443,-9.338,43.823,-135.742
-1.317,1.202,-0.429,0.183,67.444,-117.188
-1.194,1.106,-0.432,6.531,80.627,-99.915
-0.994,1.002,-0.489,6.714,90.210,-85.266
-0.750,0.938,-0.338,2.991,95.642,-69.397
-0.566,0.873,-0.161,-5.005,93.262,-54.077
-0.481,0.949,-0.056,-9.155,86.426,-38.696
-0.461,1.028,0.000,-5.737,73.242,-22.278
-0.396,1.069,0.064,1.831,43.579,-6.592
-0.209,1.049,0.015,4.639,11.902,8.545
-0.106,1.130,-0.061,4.150,-21.790,25.635
-0.041,1.073,-0.094,1.282,-52.856,53.589
-0.430,1.351,-0.535,33.264,-7.812,126.282
-0.421,1.236,-0.509,62.805,15.503,167.725
-0.307,0.747,-0.320,25.452,-21.545,138.062
-0.234,0.999,-0.503,-1.892,-45.288,150.513
-0.756,0.888,-1.046,-27.344,-35.706,172.485
-1.198,0.915,-1.029,-36.987,-24.170,195.496
-1.618,0.939,-0.409,-34.485,-23.376,180.298
-1.663,1.492,0.414,-4.700,-49.316,157.593
0.031,1.617,-0.240,-12.451,-29.297,152.832
1.344,1.679,-1.075,-32.654,34.302,146.606
1.340,1.810,-1.135,-28.076,63.904,141.968
1.272,1.583,-0.870,-31.982,51.575,144.165
1.147,1.555,-0.558,-35.400,4.211,116.699
0.505,1.732,-0.525,-33.386,-39.246,91.125
0.297,2.088,-0.413,-6.897,-59.387,92.163
0.434,1.764,-0.673,9.155,-73.425,98.938
0.356,1.316,-0.737,13.428,-72.327,107.544
-0.304,0.736,-0.678,10.681,-63.538,114.746
-1.084,0.585,-0.449,9.460,-41.809,96.130
-0.880,0.735,-0.219,19.592,-12.634,62.073
-0.529,1.210,0.325,33.691,-4.883,31.982
-0.349,1.992,0.533,55.969,-19.775,26.001
0.034,2.097,0.224,49.255,-45.532,28.503
-0.094,1.798,-0.274,24.414,-51.941,26.733
-0.759,1.346,-0.232,-7.385,-35.034,42.419
-0.813,1.135,-0.435,-12.146,-12.085,52.612
-0.507,0.675,-0.520,2.380,-3.357,41.138
-0.297,0.265,-0.464,1.343,-7.751,28.503
-0.413,0.314,-0.364,-3.113,-7.751,16.541
-0.584,0.817,-0.269,3.845,-7.263,-1.221
-0.416,1.119,-0.337,16.052,-5.432,-7.080
-0.236,1.142,-0.352,20.569,-6.042,2.319
-0.326,1.010,-0.297,15.991,-8.850,6.714
-0.320,0.902,-0.305,11.475,-7.385,0.610
-0.218,0.864,-0.354,10.620,-5.066,-2.136
-0.216,0.856,-0.332,10.437,-6.348,1.221
-0.279,0.857,-0.310,8.362,-7.568,3.479
-0.327,0.906,-0.330,7.019,-7.629,2.197
-0.348,0.949,-0.343,9.644,-5.981,1.587
-0.304,0.936,-0.316,13.672,-3.357,5.432
-0.250,0.893,-0.284,15.320,-0.854,11.597
-0.208,0.866,-0.293,12.695,0.793,17.090
-0.177,0.854,-0.320,8.972,1.770,23.193
-0.135,0.885,-0.313,7.141,3.113,28.931
-0.095,0.906,-0.342,4.883,3.113,32.166
-0.132,0.919,-0.373,2.686,2.686,39.978
-0.221,0.924,-0.394,2.686,3.357,47.119
-0.248,0.910,-0.374,2.075,6.226,50.110
-0.213,0.939,-0.349,6.775,10.681,48.523
-0.110,0.940,-0.419,12.451,10.620,49.316
-0.259,0.997,-0.292,15.442,12.451,55.969
-0.392,1.036,-0.239,15.625,15.198,58.044
-0.342,1.128,-0.224,16.052,16.541,62.073
-0.177,1.219,-0.284,16.907,19.470,76.599
-0.133,1.235,-0.373,15.686,21.118,89.783
-0.372,1.108,-0.392,19.653,21.667,90.576
-0.551,1.060,-0.298,18.188,30.640,97.412
-0.564,1.093,-0.243,15.320,41.504,103.271
-0.442,1.074,-0.234,18.494,47.119,102.600
-0.357,0.930,-0.318,14.893,48.828,109.253
-0.500,0.746,-0.373,10.071,50.781,113.831
-0.712,0.733,-0.363,9.949,57.068,114.990
-0.732,0.843,-0.251,11.108,65.002,113.831
-0.698,1.000,-0.234,16.907,68.115,112.366
-0.559,1.225,-0.206,19.531,69.153,111.938
-0.424,1.425,-0.221,19.165,67.871,117.371
-0.250,1.581,-0.277,23.071,65.247,124.512
-0.231,1.614,-0.285,24.536,64.270,140.320
-0.405,1.584,-0.327,20.020,61.951,155.212
-0.624,1.730,-0.347,18.250,61.401,160.156
-0.532,1.989,-0.368,22.583,69.031,153.442
-0.131,2.103,-0.338,34.973,83.313,144.470
0.146,1.974,-0.201,47.424,97.351,140.381
0.094,1.693,-0.159,61.646,104.431,143.250
0.016,1.103,-0.142,65.369,102.356,146.729
-0.030,0.635,-0.014,62.073,93.140,137.817
-0.080,0.384,0.040,65.674,82.703,110.291
-0.152,0.118,0.031,70.435,71.045,74.463
-0.035,-0.120,-0.010,77.881,53.711,40.344
-0.134,-0.523,-0.069,83.801,37.048,25.208
-0.504,-0.797,-0.117,66.711,22.156,18.677
-0.504,-0.922,-0.184,39.856,4.517,13.855
0.186,-0.763,-0.420,23.499,-15.320,3.479
0.742,-0.489,-0.439,12.695,-16.113,-19.775
0.935,-0.236,-0.288,3.662,-5.981,-51.880
0.846,-0.054,-0.201,0.244,-0.549,-88.562
0.508,0.179,-0.280,10.559,11.353,-108.398
0.201,0.078,-0.237,6.531,9.338,-126.892
0.127,-0.041,-0.249,-19.592,-6.165,-148.254
0.213,0.085,-0.336,-36.377,-13.428,-158.752
0.189,0.294,-0.345,-37.781,-10.803,-169.373
0.154,0.363,-0.289,-39.917,-9.644,-182.678
0.164,0.423,-0.251,-48.218,-14.282,-193.420
0.201,0.501,-0.195,-59.509,-20.447,-199.463
0.240,0.612,-0.169,-67.993,-25.269,-205.200
0.248,0.696,-0.120,-74.158,-33.752,-212.402
0.269,0.764,-0.084,-78.186,-45.288,-220.215
0.295,0.796,-0.099,-80.627,-57.800,-227.417
0.259,0.789,-0.126,-85.144,-65.186,-232.117
0.148,0.837,-0.182,-89.111,-77.209,-238.037
0.104,0.826,-0.166,-95.398,-87.219,-247.437
0.101,0.788,-0.129,-106.506,-102.905,-256.287
0.096,0.853,-0.083,-110.352,-113.098,-256.042
-0.012,1.098,-0.144,-100.464,-98.816,-240.173
-0.250,1.304,-0.164,-91.614,-75.562,-220.093
-0.568,1.576,-0.244,-86.792,-56.946,-203.735
-0.805,1.838,-0.356,-74.219,-35.034,-182.861
-1.003,2.074,-0.343,-50.537,-22.827,-164.062
-1.211,1.866,-0.382,-44.739,-19.592,-176.880
-1.326,1.673,-0.394,-48.096,-16.357,-197.266
-1.281,1.634,-0.445,-41.199,-24.902,-203.430
-1.260,1.462,-0.326,-34.729,-22.034,-191.223
-1.321,1.291,-0.296,-40.466,-7.324,-174.988
-1.423,1.352,-0.293,-40.161,12.207,-156.799
-1.434,1.409,-0.261,-26.550,34.363,-134.888
-1.355,1.336,-0.268,-13.489,49.744,-111.023
-1.268,1.243,-0.349,-5.798,53.223,-89.172
-1.184,1.117,-0.439,-0.366,51.392,-69.824
-1.075,0.970,-0.426,-0.977,48.767,-51.331
-0.903,0.868,-0.333,-8.484,42.236,-34.241
-0.747,0.895,-0.222,-16.846,31.372,-17.334
-0.683,0.984,-0.182,-19.592,20.813,0.732
-0.638,1.009,-0.180,-19.165,4.272,19.958
-0.547,1.024,-0.227,-15.686,-11.414,37.598
-0.512,0.984,-0.223,-16.052,-32.654,58.044
-0.447,1.006,-0.205,-17.822,-41.016,100.525
-0.493,1.463,-0.656,-7.019,-7.751,196.899
-1.178,0.641,-0.452,-25.940,-13.062,173.828
-1.377,0.989,-0.497,-32.898,-63.354,189.636
-0.881,1.265,-0.167,-14.893,-88.501,201.904
0.210,1.283,-0.237,-36.499,-40.222,174.683
0.348,1.481,-1.136,-49.988,17.273,178.406
0.193,1.600,-0.645,-46.997,43.884,184.204
0.607,1.739,-0.632,-45.715,66.711,197.266
0.485,1.743,-0.492,-29.602,70.007,186.951
0.335,1.690,-0.201,7.507,43.701,159.485
0.827,1.755,-0.172,19.043,1.953,138.855
0.757,1.614,-0.184,24.963,-30.212,116.028
-0.287,1.337,-0.391,31.921,-56.091,113.892
-0.313,0.979,-0.947,16.968,-62.256,84.778
-0.339,1.138,-1.136,-2.991,-57.495,53.162
-0.460,2.136,-0.628,10.559,-36.499,36.682
0.307,3.204,0.110,37.781,-30.640,32.898
0.040,2.692,0.231,37.964,-30.396,61.768
-1.177,1.520,-0.204,8.179,-20.813,80.933
-1.203,0.602,-0.509,-15.564,-6.409,59.814
-0.722,0.097,-0.533,-23.132,6.104,48.523
-0.409,-0.108,-0.225,-2.686,7.141,45.471
-0.377,-0.118,-0.008,1.038,7.446,18.555
-0.538,0.715,-0.284,17.700,4.639,-31.799
-0.586,1.205,-0.419,41.687,15.076,-59.998
-0.597,1.175,-0.424,34.729,44.189,-59.143
-0.587,1.142,-0.423,30.762,60.120,-59.082
-0.372,0.914,-0.344,24.841,44.556,-52.856

-0.123,0.937,-0.263,6.836,4.395,51.086
-0.087,0.950,-0.265,7.141,7.812,53.162
-0.133,0.979,-0.255,8.484,11.230,55.847
-0.147,1.003,-0.225,9.827,15.564,58.960
-0.165,0.993,-0.229,9.949,19.836,62.622
-0.151,1.016,-0.234,10.437,23.560,67.200
-0.048,1.031,-0.258,10.498,26.245,72.205
0.007,1.042,-0.290,11.047,24.536,79.041
0.021,1.066,-0.283,11.963,23.499,86.792
0.008,1.079,-0.301,12.390,19.653,92.712
-0.202,1.082,-0.326,14.404,14.038,98.938
-0.322,1.077,-0.251,14.282,15.381,104.370
-0.259,1.147,-0.161,15.991,18.982,109.375
-0.274,1.155,-0.160,20.691,18.616,112.732
-0.428,1.059,-0.162,20.325,20.081,115.295
-0.447,1.013,-0.186,15.320,23.376,118.713
-0.354,1.063,-0.188,13.367,25.269,120.850
-0.278,1.088,-0.162,13.550,27.344,120.911
-0.290,1.069,-0.169,12.390,28.625,122.253
-0.447,0.988,-0.263,6.409,28.931,124.512
-0.510,0.976,-0.306,0.000,30.945,126.831
-0.373,1.005,-0.324,-2.441,32.349,126.892
-0.393,1.041,-0.353,-2.319,31.494,125.854
-0.508,1.101,-0.365,-2.197,34.912,127.380
-0.495,1.214,-0.335,-4.639,40.100,130.554
-0.388,1.427,-0.286,-2.502,43.274,135.254
-0.281,1.468,-0.233,1.770,45.837,148.743
-0.364,1.324,-0.170,0.793,49.194,161.682
-0.474,1.149,-0.111,-3.479,53.406,169.556
-0.570,1.055,-0.077,-8.850,55.725,170.959
-0.607,1.131,-0.145,-12.146,56.763,167.542
-0.543,1.434,-0.249,-13.672,59.082,161.255
-0.411,1.833,-0.393,-14.038,65.125,158.386
-0.354,2.119,-0.469,-7.385,74.219,161.011
-0.291,2.154,-0.461,-3.052,88.745,163.208
-0.047,1.954,-0.380,1.038,105.347,163.208
0.081,1.750,-0.240,20.325,113.098,161.072
0.060,1.291,-0.060,38.757,108.582,151.428
-0.145,0.901,0.066,47.668,89.417,131.775
-0.439,0.425,0.172,47.852,70.984,119.080
-0.730,0.159,0.141,47.791,59.204,113.037
-0.845,-0.044,0.017,50.903,37.231,100.098
-0.528,-0.197,-0.246,48.096,9.155,85.205
-0.237,-0.244,-0.337,45.471,-4.517,65.613
-0.084,-0.270,-0.308,41.260,-8.484,46.814
0.201,-0.306,-0.399,41.260,-10.254,29.175
0.704,-0.427,-0.527,41.748,-8.301,13.611
1.297,-0.768,-0.479,28.931,0.793,1.953
1.570,-0.881,-0.264,6.409,4.883,-23.743
1.419,-0.811,-0.266,-14.404,-7.812,-81.177
1.146,-0.451,-0.370,-27.222,-21.240,-133.850
0.848,-0.165,-0.475,-33.447,-26.917,-158.752
0.660,-0.087,-0.527,-42.053,-26.794,-176.086
0.522,-0.009,-0.495,-47.485,-20.752,-196.350
0.407,-0.006,-0.446,-52.307,-13.550,-215.149
0.307,0.025,-0.424,-61.462,-7.263,-228.088
0.254,0.193,-0.350,-72.449,-4.944,-236.694
0.256,0.416,-0.290,-80.017,-8.240,-241.882
0.227,0.607,-0.237,-83.313,-15.503,-244.995
0.159,0.698,-0.215,-85.571,-23.560,-248.413
0.100,0.732,-0.237,-88.623,-30.945,-252.930
0.062,0.731,-0.279,-93.872,-34.119,-256.836
-0.013,0.697,-0.287,-102.722,-34.485,-260.010
-0.115,0.779,-0.202,-108.215,-35.095,-262.878
-0.191,0.826,-0.085,-110.718,-29.541,-267.822
-0.317,0.950,0.004,-111.389,-19.409,-274.048
-0.488,1.108,0.038,-102.844,-12.268,-273.499
-0.699,1.293,0.121,-88.074,-12.878,-263.000
-0.783,1.446,0.254,-72.571,-9.766,-237.305
-1.038,1.685,0.178,-77.515,-11.536,-243.591
-1.080,1.534,0.344,-106.384,-47.485,-282.043
-0.948,1.884,0.062,-72.266,-54.321,-216.614
-1.001,2.224,-0.077,-4.700,-68.604,-128.967
-1.232,1.782,-0.214,9.888,-90.149,-103.882
-1.349,1.546,-0.149,-3.357,-103.882,-129.883
-1.345,1.525,-0.277,-3.418,-93.323,-151.733
-1.258,1.501,-0.332,-3.845,-76.050,-148.254
-1.307,1.339,-0.318,-10.742,-59.814,-146.790
-1.344,1.466,-0.309,-7.690,-46.875,-125.977
-1.341,1.548,-0.413,-0.488,-38.879,-101.746
-1.323,1.448,-0.477,3.784,-33.752,-89.417
-1.271,1.494,-0.423,18.188,-28.320,-36.072
-1.193,2.635,-0.730,79.163,8.118,121.826
-0.976,0.700,-0.335,49.133,-11.169,97.290
-0.796,0.575,-0.335,-1.404,-26.489,79.895
-0.713,0.979,-0.381,-9.033,-27.527,134.216
-0.801,1.072,-0.444,-6.165,-14.771,184.692
-1.104,0.931,-0.645,-18.127,-7.507,188.599
-1.409,0.734,-0.621,-44.922,-12.207,202.820
-2.167,0.901,-0.706,-22.400,-43.091,230.530
-0.878,1.814,1.149,15.808,-34.668,193.420
0.072,1.829,-0.346,12.573,22.095,194.702
0.824,2.165,-1.194,34.302,40.283,198.181
0.997,1.627,-0.771,13.428,36.926,170.715
0.780,1.155,-0.646,-27.649,13.672,130.066
0.438,1.537,-0.859,-39.063,-12.268,112.305
0.299,1.781,-0.594,-29.480,-35.706,98.511
0.411,1.899,-0.632,-20.569,-56.335,83.984
-0.034,1.848,-0.372,-9.521,-69.946,77.209
-0.614,1.860,-0.024,5.981,-74.524,72.510
-0.331,1.526,-0.352,18.005,-51.453,70.801
-0.303,1.453,-0.581,18.555,-38.940,57.800
-0.068,1.475,-0.353,15.137,-52.307,37.842
-0.384,1.479,-0.134,11.475,-60.974,37.720
-0.809,1.348,-0.098,14.832,-52.673,45.654
-0.910,1.023,-0.053,10.559,-36.377,47.058
-0.705,0.774,-0.230,11.658,-29.724,40.833
-0.670,0.607,-0.274,17.212,-25.940,33.081
-0.581,0.592,-0.248,12.329,-21.667,18.494
-0.510,0.803,-0.261,11.353,-15.808,3.235
-0.540,0.935,-0.265,15.991,-12.146,2.563
-0.566,0.973,-0.261,20.020,-9.888,7.690
-0.497,0.918,-0.282,21.851,-7.629,6.348
-0.470,0.833,-0.274,21.729,-7.812,2.625
-0.433,0.808,-0.308,17.700,-7.751,-0.549
-0.416,0.808,-0.341,13.916,-7.263,-0.916
-0.439,0.851,-0.326,12.695,-6.714,-2.014
-0.401,0.879,-0.298,11.108,-5.554,-1.160
-0.320,0.907,-0.317,10.010,-4.822,1.465
-0.288,0.912,-0.314,9.888,-4.028,2.075
-0.290,0.900,-0.306,8.057,-2.991,4.211
-0.355,0.880,-0.290,6.714,-1.648,4.517
-0.378,0.846,-0.277,4.211,-1.831,3.967
-0.361,0.852,-0.277,0.854,-1.221,6.653
-0.361,0.864,-0.293,-0.061,0.305,9.521
-0.355,0.844,-0.293,-1.526,1.709,13.245
-0.356,0.882,-0.284,-3.723,3.662,15.320
-0.346,0.905,-0.295,-3.845,5.432,17.944
-0.268,0.940,-0.314,-3.418,7.629,21.545
-0.173,0.945,-0.372,-1.282,8.057,24.780
-0.166,0.941,-0.405,0.488,6.165,27.222
-0.198,0.936,-0.422,0.916,1.526,28.076
-0.303,0.961,-0.413,1.099,-3.601,27.649
-0.408,0.988,-0.365,4.761,-4.150,32.166
-0.362,1.069,-0.334,7.019,0.732,36.255
-0.393,1.138,-0.315,11.597,7.202,41.443
-0.435,1.091,-0.284,13.123,16.663,49.316
-0.438,0.970,-0.357,9.216,25.085,62.012
-0.438,0.909,-0.407,6.592,33.386,75.073
-0.403,0.841,-0.419,-0.488,38.025,84.290
-0.474,0.881,-0.507,1.648,38.574,77.087
-0.443,0.976,-0.613,-0.916,46.387,73.364
-0.303,1.075,-0.543,-1.831,53.162,75.928
-0.486,1.108,-0.450,-1.038,60.364,75.317
-0.684,1.188,-0.358,-2.869,72.510,70.557
-0.623,1.370,-0.250,-5.676,87.463,78.674
-0.415,1.395,-0.013,-5.188,97.290,98.083
-0.319,1.175,0.124,-1.282,99.731,116.699
-0.581,0.951,0.164,-1.587,91.736,126.221
-0.675,0.961,0.157,-4.639,83.313,125.610
-0.382,1.153,0.149,2.197,76.355,119.934
-0.375,1.286,0.054,8.301,60.669,120.117
-0.523,1.451,-0.087,4.517,46.997,124.756
-0.419,1.730,-0.288,4.639,42.297,123.108
-0.059,1.914,-0.422,12.024,43.274,117.188
0.131,1.959,-0.483,21.423,47.729,122.253
0.060,1.709,-0.472,31.067,54.443,134.155
-0.090,1.301,-0.385,35.889,62.134,140.076
-0.196,0.964,-0.263,42.053,65.247,135.376
-0.166,0.661,-0.123,55.298,66.223,117.554
-0.198,0.313,-0.023,68.542,68.176,94.360
-0.296,0.120,0.003,76.233,62.500,63.477
-0.328,-0.080,0.025,91.492,61.035,47.424
-0.440,-0.441,-0.245,85.999,57.434,45.715
-0.670,-0.646,-0.412,60.120,41.016,41.748
-0.659,-0.645,-0.488,38.391,4.761,35.217
-0.287,-0.523,-0.385,28.503,-29.419,20.081
0.067,-0.431,-0.274,27.527,-38.574,-6.287
0.198,-0.304,-0.313,22.766,-29.663,-32.227
0.238,-0.096,-0.379,18.433,-14.404,-55.176
0.437,-0.004,-0.411,13.977,6.592,-72.449
0.586,0.246,-0.516,26.367,40.894,-77.820
0.450,0.095,-0.254,26.428,44.373,-95.825
0.254,-0.101,0.074,0.427,17.273,-129.028
0.263,0.057,0.015,-18.311,-1.648,-144.714
0.219,0.273,-0.191,-21.973,-7.690,-155.029
0.121,0.311,-0.325,-27.893,-14.465,-169.922
0.050,0.356,-0.259,-37.659,-26.245,-178.406
0.053,0.495,-0.169,-42.297,-37.292,-179.321
0.102,0.580,-0.142,-46.082,-47.607,-182.007
0.115,0.654,-0.142,-51.270,-56.335,-190.308
0.083,0.703,-0.152,-56.702,-61.096,-201.050
0.063,0.749,-0.149,-59.387,-63.782,-208.801
0.057,0.753,-0.170,-59.937,-65.063,-213.806
0.029,0.765,-0.195,-60.303,-65.247,-218.018
-0.018,0.773,-0.208,-59.631,-62.622,-221.130
-0.041,0.823,-0.234,-56.885,-57.312,-222.778
-0.098,0.797,-0.174,-60.181,-69.153,-231.140
-0.094,0.768,-0.105,-78.674,-86.792,-238.220
-0.078,0.996,-0.065,-82.336,-92.834,-226.440
-0.120,1.255,-0.175,-75.439,-77.820,-203.979
-0.430,1.487,-0.275,-67.810,-51.941,-186.096
-0.870,1.661,-0.371,-50.537,-28.931,-175.964
-1.115,1.788,-0.382,-33.508,-10.986,-160.278
-1.181,1.660,-0.418,-24.231,-4.456,-163.208
-1.113,1.404,-0.420,-22.034,-8.179,-183.289
-1.039,1.208,-0.397,-30.151,-14.465,-195.923
-0.933,1.179,-0.461,-36.194,-16.724,-194.763
-0.941,1.183,-0.465,-41.382,-6.653,-179.810
-1.000,1.237,-0.472,-43.762,11.658,-162.720
-1.055,1.284,-0.491,-41.565,30.701,-144.531
-1.140,1.318,-0.440,-36.621,49.255,-125.427
-1.301,1.302,-0.362,-26.733,63.171,-111.877
-1.223,1.219,-0.298,-16.235,65.796,-94.177
-1.148,1.003,-0.361,-14.221,68.909,-75.195
-0.895,1.036,-0.372,-17.273,71.045,-43.579
-0.682,0.851,-0.310,-25.757,70.007,-30.029
-0.519,0.970,-0.192,-29.785,61.646,-23.865
-0.447,1.098,-0.157,-30.457,44.128,-12.695
-0.577,1.073,-0.088,-43.396,30.029,117.676
-0.373,1.608,-0.253,-11.719,25.024,213.440
-0.368,0.634,-0.160,-8.911,9.094,152.100
-0.453,0.975,-0.417,-19.470,-4.089,170.715
-0.831,1.055,-0.804,-29.358,1.282,210.022
-1.535,0.902,-0.926,-44.617,0.488,241.943
-2.228,0.633,-0.936,-43.213,-17.822,245.911
-1.661,1.375,0.622,-26.794,-26.001,202.881
-0.078,1.858,-0.162,-36.133,-8.972,210.754
0.967,2.073,-1.024,9.399,8.362,250.977
1.012,2.157,-0.716,44.495,35.095,247.070
1.351,1.553,-0.173,14.282,49.011,158.997
0.543,1.051,-0.496,-15.076,23.193,101.074
-0.226,1.158,-0.261,-30.823,-7.568,104.736
-0.397,1.857,-0.030,-15.137,-32.288,115.845
0.284,1.256,-0.262,-5.127,-50.232,84.900
0.091,0.941,-0.809,12.695,-52.002,66.528
-0.409,0.751,-0.968,30.945,-62.866,54.443
-0.391,0.254,-1.128,1.892,-55.237,8.545
-0.866,1.315,-0.116,-5.493,-24.963,-21.423
-1.122,2.684,0.568,40.405,-29.724,-47.913
-0.194,2.997,0.286,39.185,-32.593,-55.725
-0.328,2.464,-0.082,8.850,-36.255,3.845
-0.921,1.597,-0.222,-20.203,-18.372,44.983
-0.737,0.898,-0.416,-29.968,15.015,35.400
-0.621,0.386,-0.714,-15.320,40.222,23.254
-0.429,-0.088,-0.612,-3.052,56.335,8.362
-0.450,-0.179,-0.365,-13.184,59.326,-14.526
-0.744,0.532,-0.377,-7.324,60.669,-49.683

-0.220,0.931,-0.198,7.629,11.047,49.316
-0.174,0.976,-0.246,10.132,14.526,50.842
-0.152,0.994,-0.231,11.108,16.541,53.772
-0.085,1.004,-0.253,12.329,16.785,58.411
-0.089,0.978,-0.317,13.550,14.587,63.782
-0.141,0.952,-0.294,13.733,14.099,69.153
-0.121,0.959,-0.242,14.160,15.625,72.998
-0.116,0.957,-0.242,15.686,15.198,75.562
-0.225,0.930,-0.275,16.235,13.184,77.271
-0.328,0.956,-0.238,16.113,14.038,77.271
-0.329,0.967,-0.231,17.090,17.883,78.247
-0.272,0.981,-0.203,19.531,21.057,80.933
-0.331,0.981,-0.154,19.470,21.851,84.290
-0.354,0.974,-0.202,17.761,22.034,86.731
-0.309,0.970,-0.238,15.747,24.475,88.684
-0.137,0.961,-0.246,15.259,27.954,92.407
-0.228,0.932,-0.244,13.733,27.344,96.802
-0.490,0.948,-0.185,9.033,28.931,98.083
-0.688,1.000,-0.180,6.592,33.203,97.961
-0.675,1.042,-0.179,8.301,39.001,99.243
-0.262,1.041,-0.148,11.963,44.067,103.638
-0.064,0.966,-0.240,14.343,37.964,109.009
-0.447,0.877,-0.312,11.047,33.203,113.525
-0.694,0.871,-0.270,8.362,38.452,119.568
-0.700,0.852,-0.177,10.071,39.612,120.605
-0.796,0.894,-0.127,7.874,36.072,113.708
-0.838,1.206,-0.096,8.484,33.203,108.337
-0.599,1.795,-0.043,9.399,28.198,113.220
-0.356,2.280,-0.142,4.700,19.287,128.296
-0.337,2.638,-0.341,5.188,15.381,149.109
-0.228,2.805,-0.519,14.832,25.635,168.335
-0.000,2.589,-0.560,21.301,42.419,189.148
0.090,2.227,-0.566,15.869,58.472,212.280
-0.011,1.979,-0.651,8.667,69.397,217.529
0.016,1.700,-0.583,15.686,78.369,201.050
0.158,1.276,-0.398,28.015,91.736,177.185
0.292,0.926,-0.234,42.786,101.135,149.658
0.275,0.421,-0.147,56.274,94.666,123.474
0.214,0.005,-0.179,50.659,65.186,91.919
0.219,-0.336,-0.193,35.645,34.790,52.124
0.449,-0.458,-0.164,24.353,19.836,18.677
0.246,-0.484,0.070,31.921,2.075,-4.578
-0.031,-0.907,0.212,18.188,-6.226,-22.522
0.137,-0.956,0.087,4.944,-4.456,-41.931
0.467,-0.932,-0.159,-4.456,-9.399,-62.439
0.733,-0.593,-0.425,-15.381,-23.254,-91.919
0.893,-0.211,-0.557,-19.897,-23.071,-121.948
0.510,0.018,-0.265,-24.109,-15.625,-142.334
0.060,0.216,-0.084,-25.330,-20.813,-150.574
-0.084,0.193,-0.191,-29.968,-24.414,-154.541
-0.073,0.175,-0.283,-35.583,-19.348,-165.649
-0.072,0.245,-0.221,-35.645,-9.338,-180.054
-0.079,0.315,-0.060,-31.433,11.169,-188.599
-0.093,0.303,-0.083,-33.752,18.616,-198.730
0.121,0.391,0.125,-37.537,-25.696,-206.238
0.434,0.388,0.068,-48.645,-47.852,-215.210
0.466,0.442,0.055,-61.340,-71.411,-225.647
0.413,0.509,-0.001,-72.266,-94.788,-231.445
0.272,0.560,-0.107,-75.806,-91.614,-228.516
0.147,0.571,-0.118,-78.613,-86.670,-222.717
0.024,0.699,-0.056,-80.200,-85.938,-222.839
-0.045,0.898,0.034,-70.251,-87.524,-226.501
-0.110,1.107,0.156,-54.871,-92.529,-232.483
-0.182,1.284,0.225,-41.748,-96.619,-232.300
-0.266,1.428,0.256,-34.607,-97.839,-217.468
-0.364,1.427,0.132,-36.255,-103.943,-204.590
-0.599,1.405,-0.227,-58.716,-113.220,-192.688
-0.917,1.833,-0.427,-59.326,-113.892,-175.232
-1.125,2.090,-0.475,-37.415,-106.323,-157.898
-1.283,2.099,-0.578,5.676,-97.961,-155.273
-1.573,1.652,-0.495,17.883,-79.407,-173.096
-1.405,1.525,-0.554,13.428,-49.255,-179.077
-1.203,1.396,-0.499,7.385,-28.015,-173.645
-1.104,1.313,-0.398,0.610,-16.846,-158.081
-1.130,1.287,-0.369,0.549,-4.822,-134.521
-1.200,1.238,-0.337,1.221,2.930,-112.366
-1.212,1.205,-0.297,5.127,4.456,-95.398
-1.147,1.157,-0.375,12.207,-0.244,-76.111
-1.000,1.042,-0.447,12.573,-6.958,-54.749
-0.851,0.936,-0.466,4.089,-10.559,-36.133
-0.776,0.929,-0.456,-5.249,-14.221,-17.883
-0.723,0.968,-0.431,-11.780,-15.747,-1.770
-0.647,0.989,-0.437,-14.221,-18.982,12.878
-0.568,1.010,-0.492,-14.771,-32.837,28.503
-0.495,1.114,-0.634,-12.451,-16.602,80.017
-0.495,1.207,-0.824,9.705,16.663,127.075
-0.668,0.745,-0.537,-11.414,15.015,111.389
-0.710,0.835,-0.430,-31.738,21.973,122.986
-0.828,1.046,-0.569,-40.833,47.119,153.137
-1.211,1.094,-0.767,-45.471,49.805,165.833
-0.977,1.028,-0.415,-47.180,33.447,178.711
-0.568,1.083,-0.591,-72.327,-7.080,214.233
-0.455,1.274,-0.813,-88.196,-32.776,213.806
0.378,1.706,-0.360,-84.290,-2.686,195.190
0.637,1.899,-0.449,-77.209,43.213,199.707
0.950,2.160,-0.057,-21.790,75.317,219.482
0.709,1.847,-0.405,16.235,72.510,232.056
0.372,1.377,-0.382,18.005,50.537,204.773
0.123,1.642,-0.090,19.226,13.123,160.461
0.093,1.538,-0.081,22.400,-17.883,122.620
0.193,1.379,-0.432,18.616,-32.654,104.675
-0.103,1.135,-0.673,5.310,-44.678,94.971
-0.393,1.012,-0.814,-14.160,-48.889,79.163
-0.605,1.168,-0.880,-18.005,-48.706,59.570
-0.474,1.321,-0.753,-12.207,-41.077,44.189
-0.307,1.418,-0.526,0.122,-44.861,42.297
-0.179,1.417,-0.126,5.310,-64.758,35.400
-0.052,1.406,-0.258,5.676,-76.782,26.978
-0.297,1.439,-0.380,15.198,-97.290,14.954
-0.690,1.178,-0.310,11.108,-78.064,11.841
-0.903,0.869,-0.387,-1.892,-39.978,16.479
-0.647,0.729,-0.533,-3.235,-24.902,13.367
-0.552,0.673,-0.392,3.479,-18.311,9.644
-0.507,0.691,-0.342,9.277,-15.259,7.629
-0.463,0.776,-0.272,13.733,-16.968,1.709
-0.490,0.808,-0.225,17.029,-15.808,4.028
-0.636,0.800,-0.182,16.296,-12.207,2.319
-0.499,0.890,-0.207,16.174,-9.949,-3.662
-0.443,0.888,-0.230,16.052,-7.324,-4.761
-0.501,0.828,-0.227,11.475,-4.883,-4.395
-0.478,0.819,-0.252,8.606,-1.892,-4.639
-0.427,0.812,-0.300,7.996,-0.488,-3.540
-0.392,0.793,-0.334,5.676,-1.160,-2.441
-0.376,0.799,-0.381,2.380,-0.061,-0.793
-0.301,0.816,-0.425,-0.488,0.122,1.953
-0.250,0.846,-0.449,-2.258,0.854,4.211
-0.268,0.828,-0.433,-3.601,1.709,6.226
-0.334,0.809,-0.409,-5.371,2.380,8.057
-0.374,0.846,-0.390,-6.958,1.282,8.972
-0.346,0.911,-0.350,-5.859,0.610,10.681
-0.296,0.934,-0.353,-3.113,1.160,12.817
-0.228,0.904,-0.394,-3.540,1.526,16.663
-0.176,0.909,-0.411,-3.418,2.014,25.391
-0.148,0.955,-0.390,-4.761,4.761,33.447
-0.121,0.960,-0.356,-6.409,7.263,38.696
-0.166,0.994,-0.346,-7.812,7.568,36.499
-0.209,0.913,-0.378,-9.460,2.869,34.912
-0.400,0.857,-0.393,-9.766,0.183,35.767
-0.516,0.835,-0.374,-6.897,1.343,36.194
-0.577,0.914,-0.344,-3.113,12.451,37.476
-0.439,0.991,-0.273,4.822,19.592,37.659
-0.236,1.021,-0.298,5.737,23.376,41.260
-0.273,1.009,-0.396,13.245,20.081,40.771
-0.356,0.985,-0.400,15.259,15.137,38.391
-0.417,0.966,-0.348,11.047,15.320,44.312
-0.585,0.875,-0.380,7.263,15.503,61.890
-0.678,0.819,-0.391,7.202,15.137,71.838
-0.468,0.877,-0.330,11.536,17.944,67.932
-0.174,0.851,-0.309,18.494,19.775,67.871
-0.255,0.674,-0.322,15.503,17.822,77.942
-0.679,0.552,-0.490,8.850,13.428,88.684
-0.890,0.520,-0.508,5.493,18.066,86.426
-0.517,0.724,-0.401,13.733,32.043,69.885
-0.107,0.763,-0.311,15.991,38.757,65.979
-0.450,0.588,-0.458,11.108,31.799,71.594
-1.006,0.476,-0.639,2.441,30.334,72.388
-0.901,0.651,-0.508,-2.502,42.969,63.965
-0.470,1.268,-0.293,12.878,46.021,48.523
-0.387,1.717,-0.269,23.437,37.231,50.720
-0.718,1.921,-0.391,16.602,30.884,76.294
-0.884,2.123,-0.406,10.254,35.278,107.544
-0.708,2.409,-0.398,13.916,46.021,130.493
-0.434,2.535,-0.281,21.423,55.725,148.315
-0.381,2.582,-0.191,26.306,66.772,159.485
-0.330,2.505,-0.118,29.419,86.060,162.598
-0.179,2.324,-0.018,42.847,108.643,149.292
0.025,2.009,0.054,54.138,132.446,130.005
0.428,1.630,0.174,64.392,150.818,110.413
0.459,1.243,0.285,72.327,152.527,94.177
0.007,0.930,0.164,87.524,124.695,75.806
-0.147,0.447,-0.069,91.919,83.374,50.842
-0.081,-0.157,-0.300,94.299,44.800,28.931
-0.223,-0.802,-0.478,106.628,4.578,26.062
-0.328,-1.206,-0.787,67.566,-19.470,27.832
-0.165,-1.156,-0.717,45.715,-29.663,24.231
0.369,-1.134,-0.858,28.564,-39.978,15.320
0.810,-1.029,-0.838,11.902,-17.212,-2.686
0.915,-0.896,-0.542,-9.583,23.071,-38.452
0.699,-0.612,-0.321,-28.137,42.297,-86.792
0.511,-0.285,-0.210,-34.668,50.476,-126.160
0.340,0.011,-0.111,-33.020,58.228,-148.193
0.147,0.252,0.015,-27.710,55.664,-159.119
-0.036,0.449,0.161,-20.203,43.640,-164.246
-0.057,0.479,0.193,-18.372,38.513,-168.213
0.055,0.487,0.076,-20.691,38.757,-174.072
0.126,0.484,-0.102,-19.714,31.738,-184.998
0.124,0.377,-0.221,-23.071,18.250,-198.059
0.080,0.307,-0.306,-35.461,7.629,-206.543
0.065,0.339,-0.333,-50.049,-2.869,-209.106
0.088,0.442,-0.322,-59.814,-14.343,-211.670
0.109,0.518,-0.282,-64.941,-24.475,-215.881
0.065,0.570,-0.230,-68.237,-33.936,-219.177
0.004,0.613,-0.169,-71.289,-36.438,-220.398
-0.108,0.643,-0.246,-79.163,-46.143,-224.487
-0.231,0.687,-0.151,-88.745,-72.937,-236.755
-0.215,0.772,-0.076,-100.098,-96.130,-242.126
-0.248,0.956,-0.026,-97.168,-92.957,-226.196
-0.466,1.211,-0.003,-84.595,-70.984,-198.669
-0.747,1.374,0.030,-76.843,-55.115,-172.485
-0.971,1.710,-0.075,-56.274,-36.072,-161.926
-1.126,1.812,-0.154,-30.823,-21.240,-146.362
-1.168,1.822,-0.259,-12.085,-9.460,-127.441
-1.173,1.590,-0.264,-9.583,-7.080,-137.451
-1.015,1.218,-0.307,-22.766,-13.794,-162.354
-0.858,1.169,-0.328,-34.729,-31.921,-170.166
-0.753,1.231,-0.447,-29.236,-50.720,-160.278
-0.770,1.121,-0.405,-25.635,-57.007,-144.958
-0.861,1.052,-0.391,-29.663,-50.903,-132.751
-0.944,1.085,-0.437,-32.043,-34.058,-120.544
-1.031,1.166,-0.462,-29.419,-11.597,-107.910
-1.082,1.265,-0.457,-23.621,9.216,-94.543
-1.092,1.346,-0.556,-11.963,27.771,-80.261
-0.993,1.258,-0.582,-7.019,43.701,-66.345
-0.903,1.168,-0.590,-10.132,50.476,-55.481
-0.790,1.057,-0.571,-16.846,48.279,-46.021
-0.665,1.012,-0.513,-25.024,46.692,-34.973
-0.544,1.007,-0.387,-29.541,44.434,-21.423
-0.468,1.043,-0.305,-33.447,32.288,0.122
-0.265,1.203,-0.211,-37.231,20.813,89.539
-0.310,1.316,-0.290,-45.288,32.104,173.401
-0.531,0.749,-0.245,-65.002,24.597,155.701
-0.511,1.143,-0.419,-95.154,26.001,217.773
-0.752,1.024,-0.840,-103.455,26.672,256.531
-1.047,0.780,-0.501,-76.294,22.461,242.187
-0.714,1.035,-0.066,-54.260,-6.836,244.446
-0.732,1.481,-0.116,-27.832,-14.038,253.601
-0.731,1.460,-0.266,-14.709,17.151,255.066
-0.349,1.569,-0.437,1.648,43.274,247.620
0.203,2.030,-0.374,28.381,74.524,255.188
0.444,1.834,-0.409,47.424,89.661,243.713
0.397,1.164,-0.607,31.921,70.557,191.040
0.187,0.870,-0.291,-4.211,30.701,143.188
0.313,1.654,-0.264,5.737,-9.827,110.291
0.093,1.484,-0.316,29.175,-45.959,77.698
-0.181,1.238,-0.571,22.522,-62.988,53.345
-0.280,1.436,-0.825,16.052,-71.472,46.936
-0.369,1.479,-0.619,7.263,-79.346,30.457
-0.425,1.502,-0.562,-6.409,-81.177,15.198

-0.046,0.988,-0.249,11.780,4.333,41.565
0.028,0.975,-0.288,15.625,6.714,50.537
0.066,0.961,-0.288,16.235,6.104,56.641
0.067,0.950,-0.274,15.747,5.066,63.293
0.080,0.969,-0.216,15.808,4.089,69.519
0.026,0.959,-0.257,15.015,1.587,73.975
-0.080,1.000,-0.258,15.015,0.549,78.613
-0.128,1.025,-0.213,15.625,3.296,82.336
-0.053,1.034,-0.230,15.686,8.667,86.182
-0.071,1.054,-0.238,17.029,13.977,90.820
-0.165,1.053,-0.214,17.700,17.334,94.604
-0.237,1.039,-0.220,16.724,20.569,96.985
-0.252,1.038,-0.225,15.381,23.865,99.243
-0.128,1.068,-0.214,14.893,25.513,101.440
-0.056,1.112,-0.184,17.639,24.597,105.347
-0.149,1.099,-0.179,19.958,20.813,110.657
-0.358,1.036,-0.229,17.517,19.348,114.075
-0.603,1.103,-0.239,15.991,22.217,116.211
-0.501,1.210,-0.167,18.250,31.067,120.056
-0.152,1.299,-0.056,26.855,33.386,125.793
-0.050,1.174,0.037,32.288,26.917,133.728
-0.229,0.951,0.040,26.733,17.090,140.625
-0.425,0.848,-0.040,19.836,11.780,144.531
-0.657,0.753,-0.177,18.860,8.057,142.395
-0.773,0.660,-0.247,13.062,10.437,135.315
-0.465,0.693,-0.245,5.188,20.935,125.793
-0.170,0.801,-0.288,8.972,23.193,120.850
-0.600,0.822,-0.345,10.498,20.142,119.690
-0.874,0.947,-0.355,1.038,29.907,119.568
-0.630,1.381,-0.358,3.052,41.992,115.967
-0.245,1.817,-0.324,7.446,47.791,121.399
-0.189,2.061,-0.319,9.949,49.438,139.099
-0.447,2.020,-0.318,5.493,50.842,156.006
-0.500,2.290,-0.304,3.906,59.387,164.062
-0.242,2.445,-0.323,4.639,70.679,174.500
0.071,2.551,-0.391,14.771,78.918,181.702
0.247,2.394,-0.365,32.288,96.130,167.969
0.355,1.937,-0.289,46.814,117.737,148.071
0.385,1.327,-0.239,54.260,120.850,134.644
0.432,0.674,-0.270,53.772,96.863,118.469
0.351,0.201,-0.091,53.772,79.224,94.116
0.294,-0.132,-0.093,46.570,75.928,59.265
0.089,-0.317,-0.069,52.856,72.937,26.184
-0.083,-0.676,-0.098,60.608,67.383,12.573
-0.229,-1.062,-0.003,42.297,50.903,-1.587
-0.301,-1.171,0.034,13.062,28.320,-13.000
-0.178,-0.891,0.036,-0.732,0.671,-22.522
0.184,-0.517,-0.105,0.671,-29.175,-43.823
0.665,-0.197,-0.257,6.714,-44.556,-79.773
0.901,-0.048,-0.189,13.184,-38.818,-103.394
0.827,-0.136,-0.263,9.399,-41.016,-119.690
0.619,-0.214,-0.371,-4.639,-43.823,-140.259
0.402,-0.310,-0.273,-25.269,-41.443,-161.011
0.182,-0.187,-0.152,-39.429,-41.565,-176.208
0.052,0.014,-0.122,-40.833,-40.344,-187.317
0.012,0.125,-0.176,-42.664,-40.955,-196.899
0.048,0.210,-0.229,-50.720,-41.809,-206.482
0.130,0.360,-0.164,-60.974,-41.992,-212.646
0.145,0.495,-0.058,-68.359,-44.373,-215.637
0.126,0.611,0.006,-73.059,-50.171,-218.933
0.128,0.684,-0.037,-75.684,-58.411,-223.450
0.128,0.732,-0.090,-75.623,-59.937,-227.661
0.119,0.819,-0.183,-77.087,-54.993,-233.826
0.092,0.811,0.050,-86.853,-82.031,-250.671
0.156,0.969,0.110,-88.379,-94.788,-252.869
0.026,1.173,0.017,-77.820,-87.036,-239.014
-0.278,1.286,-0.090,-79.285,-76.782,-222.351
-0.565,1.524,-0.060,-78.369,-69.824,-209.900
-0.853,1.873,0.005,-53.162,-59.082,-205.994
-0.960,1.914,-0.015,-30.212,-47.180,-203.064
-0.929,1.864,-0.209,-15.381,-37.354,-199.036
-1.079,1.754,-0.257,-9.827,-26.367,-200.378
-1.213,1.576,-0.185,-11.841,-15.137,-203.308
-1.130,1.578,-0.244,-10.925,-2.625,-200.684
-1.031,1.540,-0.220,-5.005,8.057,-192.932
-1.028,1.414,-0.104,-3.296,18.066,-181.213
-1.046,1.373,-0.106,-1.770,28.748,-168.030
-1.074,1.389,-0.133,3.845,40.100,-151.917
-1.107,1.361,-0.165,11.414,48.401,-134.338
-1.095,1.265,-0.265,16.479,54.016,-115.356
-0.933,1.154,-0.318,12.939,53.711,-95.276
-0.636,1.084,-0.141,-8.789,45.288,-43.030
-0.634,1.446,-0.384,-3.906,83.374,7.019
-0.602,0.999,0.077,-8.240,57.922,-9.155
-0.410,1.144,-0.010,-13.550,21.912,-1.221
-0.297,1.275,-0.073,-5.676,-4.395,30.273
-0.432,1.013,-0.218,-9.338,-8.057,78.186
-0.500,1.247,-0.176,9.827,-28.259,129.883
-0.522,1.059,-0.355,19.592,-39.551,129.944
-0.484,0.936,-0.355,7.690,-41.504,140.381
-0.866,0.844,-0.639,-8.179,-47.363,142.761
-1.164,0.779,-0.845,-29.053,-46.387,159.119
-1.632,1.087,-0.524,-24.841,-44.006,178.833
-1.346,1.386,0.118,1.343,-78.125,173.035
0.411,1.421,-0.637,-23.132,-55.542,86.914
0.920,1.253,-1.021,-22.156,-0.732,-20.264
0.753,1.410,-1.407,-1.770,67.505,-106.140
0.564,1.208,-0.780,-33.325,69.031,-131.836
0.704,1.352,-0.508,-65.979,15.503,-125.122
1.028,1.548,-0.161,-38.025,-60.303,-99.976
1.664,1.787,0.156,-22.461,-88.318,60.608
1.081,1.884,-0.264,14.038,-66.345,154.541
0.312,1.179,-0.257,2.686,-66.650,107.910
0.334,1.387,-0.394,-25.574,-65.979,78.491
1.100,2.234,-1.053,-6.287,-67.078,67.017
0.704,2.677,-0.646,24.597,-74.951,70.862
-0.432,2.302,0.174,24.109,-64.331,82.520
-0.799,1.767,0.212,22.888,-28.259,97.717
-0.734,1.075,0.180,23.132,-5.859,96.558
-0.405,0.500,-0.014,18.555,-12.207,84.473
-0.098,0.053,-0.255,6.226,-35.217,68.237
-0.300,0.304,-0.226,-10.132,-50.659,38.086
-0.546,1.074,-0.256,-2.014,-45.410,15.259
-0.352,1.326,-0.216,14.221,-30.457,13.916
-0.301,1.205,-0.138,12.817,-16.052,10.681
-0.251,1.071,-0.229,16.846,-5.188,13.062
-0.139,0.850,-0.232,13.550,-8.484,5.859
-0.093,0.846,-0.214,7.629,-19.409,-1.953
-0.098,0.960,-0.238,9.155,-21.851,-1.587
-0.151,0.983,-0.219,9.277,-17.395,1.892
-0.162,0.946,-0.238,4.150,-8.240,2.869
-0.204,0.977,-0.251,1.770,3.113,2.380
-0.175,0.969,-0.231,2.197,9.399,1.587
-0.098,0.944,-0.216,1.465,9.705,3.357
-0.056,0.930,-0.214,0.549,6.653,5.737
-0.056,0.936,-0.229,-0.183,3.906,7.996
-0.073,0.931,-0.236,-0.916,4.272,10.315
-0.064,0.926,-0.237,-2.075,5.798,12.024
-0.051,0.936,-0.246,-3.784,7.080,15.198
-0.058,0.955,-0.248,-3.601,6.714,19.775
-0.065,0.955,-0.243,-2.014,7.507,25.208
-0.079,0.943,-0.241,-1.099,7.446,30.396
-0.084,0.910,-0.248,-2.869,7.507,34.729
-0.070,0.934,-0.256,-3.784,8.606,41.077
-0.066,0.964,-0.272,-2.502,9.277,49.377
-0.087,0.967,-0.249,-1.465,11.169,56.763
-0.070,0.971,-0.212,-1.831,14.343,66.772
-0.068,0.999,-0.230,-0.183,16.907,77.576
-0.167,0.980,-0.245,1.282,14.099,85.449
-0.153,0.969,-0.232,1.831,8.789,88.318
-0.007,0.965,-0.188,1.831,7.874,86.853
0.106,0.945,-0.291,3.174,4.211,89.355
-0.068,0.916,-0.307,4.639,-1.831,95.154
-0.292,0.924,-0.279,1.953,-4.883,96.497
-0.349,0.991,-0.214,1.160,-0.671,94.482
-0.198,1.053,-0.201,2.380,6.348,92.896
-0.105,1.097,-0.290,2.563,8.972,96.741
-0.229,1.133,-0.334,4.578,10.620,105.835
-0.412,1.093,-0.350,5.554,14.221,114.990
-0.468,1.001,-0.348,4.639,19.714,121.033
-0.409,0.904,-0.246,3.296,26.672,124.756
-0.384,0.863,-0.151,2.502,32.166,125.122
-0.455,0.838,-0.114,0.183,34.790,122.925
-0.615,0.765,-0.152,-5.676,33.813,116.150
-0.596,0.809,-0.202,-11.536,38.330,106.873
-0.259,0.961,-0.247,-10.803,42.297,104.553
-0.408,1.037,-0.293,-6.287,39.734,106.567
-0.801,1.021,-0.329,-6.104,43.030,109.497
-0.719,1.035,-0.415,-6.592,49.561,110.474
-0.640,1.200,-0.479,-4.272,47.974,108.032
-0.603,1.476,-0.429,-6.165,48.584,108.093
-0.569,1.934,-0.400,-5.188,49.988,117.432
-0.704,2.357,-0.372,0.854,52.002,134.155
-0.533,2.595,-0.332,8.606,59.021,151.672
-0.155,2.611,-0.245,13.123,65.125,168.152
-0.056,2.593,-0.114,17.639,68.359,186.523
-0.139,2.338,-0.026,21.301,77.393,193.176
-0.007,2.080,0.038,31.433,94.910,175.415
0.265,1.713,0.008,51.453,110.718,145.569
0.460,1.216,0.074,64.087,119.446,120.789
0.269,0.848,0.138,89.233,117.737,109.314
-0.032,0.356,0.046,103.516,99.060,98.022
-0.067,0.004,0.130,83.008,78.125,65.186
-0.209,-0.168,0.179,86.548,72.144,34.546
-0.559,-0.494,-0.028,98.938,66.650,36.865
-0.713,-0.864,-0.126,74.646,35.889,32.654
-0.410,-0.866,-0.187,44.067,1.282,23.499
0.171,-0.743,-0.382,31.860,-20.081,9.583
0.647,-0.643,-0.584,28.748,-32.776,-7.690
0.983,-0.657,-0.776,21.973,-36.865,-28.259
1.158,-0.597,-0.740,6.958,-24.841,-59.753
0.892,-0.468,-0.472,-7.507,-4.456,-102.966
0.447,-0.166,-0.393,-18.921,11.475,-138.123
0.105,0.028,-0.306,-25.391,31.738,-153.564
-0.116,0.150,-0.255,-33.325,51.941,-160.522
-0.196,0.250,-0.147,-37.415,68.970,-167.847
-0.173,0.240,0.072,-39.124,78.308,-174.072
-0.053,0.229,0.290,-43.274,81.360,-181.519
0.208,0.352,0.237,-44.983,70.740,-191.162
0.417,0.478,0.147,-42.480,45.532,-202.637
0.461,0.488,0.005,-46.997,14.771,-211.426
0.377,0.513,-0.124,-62.744,-12.939,-214.539
0.336,0.556,-0.209,-80.383,-37.537,-213.867
0.379,0.668,-0.211,-91.614,-53.589,-216.675
0.390,0.757,-0.283,-94.788,-58.289,-225.403
0.306,0.775,-0.056,-100.098,-97.351,-241.272
0.302,0.837,0.004,-104.004,-120.300,-253.052
0.185,0.940,-0.095,-103.455,-118.042,-255.920
0.017,1.076,-0.146,-102.661,-109.863,-252.563
-0.242,1.206,-0.363,-105.774,-90.332,-241.150
-0.488,1.429,-0.476,-105.225,-70.862,-225.525
-0.761,1.669,-0.305,-91.919,-63.293,-209.595
-1.001,2.007,0.104,-68.665,-57.739,-193.909
-1.055,2.165,0.046,-31.189,-43.030,-185.120
-1.300,1.845,-0.078,-22.034,-34.180,-201.721
-1.245,1.697,-0.212,-33.630,-25.330,-206.055
-1.137,1.781,-0.289,-28.015,-18.127,-194.641
-1.058,1.626,-0.337,-23.254,-11.475,-181.335
-1.068,1.470,-0.311,-28.198,-1.221,-166.077
-1.205,1.443,-0.220,-29.297,15.991,-144.287
-1.360,1.436,-0.088,-21.545,33.752,-121.460
-1.387,1.394,-0.017,-10.437,47.424,-99.915
-1.338,1.322,-0.069,1.526,57.983,-78.857
-1.218,1.167,-0.171,9.338,65.674,-58.838
-1.013,1.006,-0.268,6.287,66.711,-40.833
-0.809,0.966,-0.215,-0.061,61.462,-24.658
-0.639,0.981,-0.167,-3.845,50.598,-10.864
-0.467,0.995,-0.135,-5.920,33.691,2.197
-0.347,0.993,-0.070,-6.531,12.390,20.142
-0.323,0.983,-0.096,-8.301,0.305,29.907
-0.292,1.133,-0.000,2.014,-8.179,68.787
-0.304,1.102,-0.083,22.095,-19.226,76.233
-0.250,0.761,-0.037,1.953,-49.805,51.697
-0.258,0.933,-0.251,-0.183,-70.435,65.125
-0.534,1.027,-0.290,-0.122,-88.867,85.999
-1.482,1.072,-0.578,-5.310,-129.272,107.727
-2.290,1.278,-0.260,2.686,-167.236,105.469
-0.480,1.005,-0.195,-43.274,-139.771,48.889
-0.166,1.553,-1.145,-39.307,-75.806,25.391
0.838,2.132,-0.304,16.846,-7.019,34.851
2.835,1.667,-0.356,18.921,0.366,51.941
1.911,1.190,-0.642,-36.682,11.230,99.854
0.536,1.256,-0.591,-53.711,2.197,137.756
0.271,1.015,-0.328,-71.411,-18.555,124.939
0.274,1.251,-0.080,-70.862,-42.908,106.384
-0.023,1.474,-0.359,-36.926,-52.429,115.845
-0.144,1.340,-0.638,-3.601,-51.270,110.229
0.249,1.101,-1.220,7.385,-72.266,84.839

-0.540,2.039,-0.306,7.751,68.848,148.987
0.104,2.056,-0.266,16.785,74.951,152.161
0.076,1.887,-0.209,26.489,81.238,155.457
0.035,1.638,-0.179,42.358,91.248,152.771
-0.024,1.277,-0.207,54.993,99.915,150.024
-0.072,0.848,-0.194,72.388,99.609,141.479
-0.140,0.380,-0.182,77.820,83.740,114.441
-0.074,0.021,-0.213,70.435,64.758,79.041
-0.045,-0.210,-0.261,61.707,53.101,46.204
-0.298,-0.432,-0.353,67.261,43.396,33.569
-0.549,-0.584,-0.506,60.425,29.236,33.508
-0.611,-0.598,-0.514,32.288,4.883,28.564
-0.412,-0.388,-0.440,15.747,-16.724,20.142
-0.070,-0.324,-0.334,11.169,-24.353,0.000
0.421,-0.230,-0.278,9.766,-11.597,-27.771
0.901,-0.162,-0.426,7.019,2.991,-45.776
1.432,-0.069,-0.586,5.371,11.230,-62.561
1.454,-0.281,-0.393,-6.348,23.071,-101.257
1.067,-0.352,-0.136,-39.246,24.231,-151.245
0.713,0.130,-0.096,-56.335,4.944,-172.852
0.624,0.280,-0.235,-66.528,-20.264,-178.711
0.688,0.365,-0.413,-79.529,-35.095,-195.862
0.585,0.478,-0.258,-83.374,-34.302,-215.820
0.390,0.573,-0.090,-85.327,-36.804,-229.980
0.256,0.691,-0.087,-86.426,-41.443,-238.220
0.147,0.786,-0.107,-89.966,-26.917,-245.667
0.002,0.827,-0.169,-97.107,-2.441,-254.700
-0.066,1.059,0.151,-84.900,-29.480,-258.484
0.160,1.063,0.250,-75.256,-50.659,-259.766
0.248,0.986,0.326,-73.486,-58.533,-260.193
0.181,1.038,0.313,-78.918,-66.467,-266.052
0.044,1.078,0.281,-86.304,-74.951,-270.386
-0.136,1.247,0.170,-84.290,-67.261,-259.705
-0.449,1.460,0.162,-74.097,-62.134,-236.633
-0.698,1.638,0.219,-59.753,-68.970,-209.961
-0.781,1.679,0.167,-44.434,-82.275,-190.247
-0.919,1.781,-0.070,-32.104,-95.886,-177.490
-1.074,1.814,-0.132,-23.560,-95.215,-167.175
-1.276,1.743,-0.292,-12.878,-84.900,-172.607
-1.348,1.618,-0.307,-14.465,-64.697,-187.195
-1.224,1.537,-0.360,-14.221,-44.373,-184.448
-1.134,1.506,-0.384,-12.939,-28.381,-168.945
-1.088,1.448,-0.391,-7.446,-11.536,-149.414
-1.138,1.323,-0.369,-7.568,2.686,-133.240
-1.188,1.319,-0.386,-9.216,12.878,-118.896
-1.216,1.375,-0.453,-2.441,23.560,-101.440
-1.199,1.373,-0.436,7.629,37.048,-84.290
-1.112,1.287,-0.440,13.916,43.823,-70.129
-0.890,1.135,-0.510,6.165,38.818,-63.843
-0.905,1.420,-0.541,9.033,48.523,-2.502
-0.744,1.037,-0.464,11.475,43.701,26.611
-0.594,0.931,-0.420,-11.475,31.311,30.762
-0.601,0.901,-0.320,-20.325,15.808,17.578
-0.468,1.231,-0.290,-35.156,16.785,81.421
-0.427,1.262,-0.267,-42.725,30.518,144.531
-0.486,1.056,-0.187,-37.170,35.156,145.752
-0.440,1.052,-0.053,-28.137,33.875,139.343
-0.280,1.125,-0.088,-11.169,38.940,154.602
-0.313,1.157,-0.090,3.174,42.542,176.941
-0.209,1.074,-0.124,0.488,32.654,217.346
-0.187,1.047,-0.536,-23.682,37.903,270.752
-0.340,1.037,-0.750,-15.747,18.005,287.170
-0.712,1.156,-0.524,42.908,-18.005,281.067
-0.111,1.445,0.344,83.496,-22.034,278.870
-0.299,1.496,-0.473,64.331,17.517,264.954
-0.167,1.465,-0.926,41.931,35.706,244.812
-0.049,1.076,-1.043,-5.249,37.842,183.533
0.509,1.301,-0.981,-29.175,8.728,132.996
0.510,1.513,-0.863,-34.485,-15.137,94.788
0.060,1.449,-0.279,-21.729,-33.752,78.674
-0.165,1.423,-0.230,-4.395,-45.776,82.886
-0.337,1.254,-0.116,8.362,-55.115,82.764
-0.514,1.022,0.206,8.362,-53.589,73.303
-0.376,1.245,-0.058,3.052,-44.434,59.448
0.252,1.878,-0.561,12.878,-52.246,39.673
0.928,2.253,-1.047,23.865,-86.182,4.822
0.455,2.103,-0.696,23.071,-107.727,-21.545
-1.495,1.176,0.162,-9.399,-102.966,-5.981
-2.198,1.321,0.348,-25.208,-50.171,31.189
-1.216,1.369,0.061,4.333,-2.197,39.978
-0.580,0.735,-0.112,22.278,-12.634,29.663
-0.334,0.302,-0.389,19.592,-16.602,31.921
-0.510,0.161,-0.224,-3.723,-12.024,23.499
-0.672,0.661,-0.172,-5.676,-16.357,-2.319
-0.567,1.003,-0.275,7.874,-15.564,-3.906
-0.561,1.025,-0.287,16.418,-12.268,0.793
-0.600,0.881,-0.241,12.634,-9.521,3.662
-0.575,0.860,-0.245,10.803,-6.470,-1.038
-0.502,0.794,-0.263,12.268,-6.775,-4.456
-0.500,0.765,-0.271,12.756,-7.141,-4.639
-0.486,0.785,-0.300,11.169,-5.798,-4.883
-0.493,0.848,-0.355,10.010,-4.578,-6.165
-0.344,0.935,-0.347,10.071,-4.578,-5.920
-0.236,0.967,-0.373,11.047,-4.517,-6.104
-0.375,0.866,-0.276,10.315,-2.563,-3.784
-0.451,0.785,-0.223,6.897,-0.793,-1.465
-0.407,0.830,-0.239,7.629,-1.648,-1.221
-0.364,0.833,-0.276,10.620,-3.296,-1.221
-0.377,0.813,-0.292,9.949,-4.333,0.977
-0.425,0.813,-0.288,9.033,-4.639,0.549
-0.420,0.840,-0.283,7.935,-4.822,1.953
-0.396,0.833,-0.273,6.714,-4.395,4.395
-0.390,0.843,-0.279,5.859,-4.211,7.080
-0.374,0.854,-0.296,5.676,-3.540,10.498
-0.353,0.873,-0.262,4.456,-1.099,14.038
-0.336,0.912,-0.241,4.822,1.221,18.738
-0.345,0.903,-0.280,7.324,0.000,22.522
-0.348,0.896,-0.307,7.019,-0.977,26.123
-0.362,0.900,-0.287,7.751,-0.610,26.245
-0.349,0.899,-0.280,7.812,-0.671,26.978
-0.373,0.890,-0.279,9.277,-0.793,28.076
-0.428,0.883,-0.268,7.935,2.747,27.222
-0.383,0.859,-0.245,8.240,6.470,27.893
-0.278,0.870,-0.270,13.245,6.897,29.297
-0.293,0.915,-0.341,17.090,8.728,31.372
-0.437,0.928,-0.299,17.334,22.705,35.706
-0.420,0.941,-0.300,21.301,36.987,33.508
-0.443,0.913,-0.293,23.804,41.687,29.968
-0.523,0.967,-0.209,20.996,39.795,33.325
-0.571,0.905,-0.122,17.273,35.217,44.006
-0.540,0.938,-0.127,17.456,35.034,49.194
-0.526,0.886,-0.213,18.311,34.973,49.805
-0.448,0.895,-0.260,22.339,33.936,47.241
-0.411,0.927,-0.336,20.508,33.203,45.044
-0.450,0.887,-0.319,14.954,33.386,54.382
-0.566,0.916,-0.287,9.766,35.095,74.158
-0.683,0.914,-0.206,4.822,41.077,84.595
-0.672,0.971,-0.129,4.639,42.542,77.942
-0.538,1.087,-0.137,5.981,42.664,72.876
-0.495,1.249,-0.207,4.883,39.185,77.881
-0.680,1.433,-0.322,1.221,36.560,91.553
-0.797,1.728,-0.469,-6.958,39.429,102.295
-0.592,2.175,-0.467,-4.517,46.509,107.361
-0.502,2.462,-0.382,3.235,54.138,122.192
-0.512,2.519,-0.260,7.141,63.904,140.503
-0.405,2.486,-0.163,17.883,80.627,148.926
-0.183,2.451,-0.002,31.677,106.262,148.621
-0.022,2.244,0.126,49.072,134.766,143.494
0.058,1.814,0.025,68.909,148.987,134.033
0.180,1.217,-0.078,71.655,140.442,127.441
0.348,0.733,-0.066,67.078,130.859,118.408
0.212,0.430,0.066,71.777,120.850,96.863
0.155,-0.008,-0.296,79.346,89.844,71.594
0.404,-0.363,-0.582,102.722,43.884,41.687
0.381,-1.092,-0.680,91.187,11.719,30.945
-0.027,-1.447,-0.388,44.983,-7.996,22.156
-0.110,-1.295,-0.241,7.996,-35.583,6.042
0.251,-0.847,-0.380,-14.038,-45.227,-16.846
0.451,-0.193,-0.394,-17.700,-34.241,-51.147
0.451,0.310,-0.251,-7.507,-12.329,-81.970
0.371,0.378,-0.070,1.038,5.371,-100.647
0.170,0.215,0.064,-1.587,18.250,-110.291
0.016,0.003,0.024,-10.986,16.724,-119.141
-0.013,0.009,-0.166,-18.616,7.507,-126.587
0.037,0.068,-0.273,-25.330,-7.019,-139.160
0.107,0.137,-0.190,-31.738,-19.592,-159.912
0.101,0.216,-0.135,-36.743,-24.719,-172.485
0.060,0.285,-0.135,-43.579,-31.189,-179.932
0.050,0.360,-0.142,-50.842,-34.973,-186.707
0.036,0.471,-0.100,-55.115,-36.377,-193.665
0.022,0.565,-0.059,-55.908,-37.903,-201.111
0.024,0.635,-0.041,-55.786,-41.260,-209.229
0.031,0.702,-0.048,-54.443,-44.434,-215.332
0.014,0.746,-0.044,-51.025,-47.729,-219.849
-0.027,0.731,-0.056,-50.781,-50.293,-222.900
-0.113,0.713,-0.100,-56.030,-50.171,-222.900
-0.146,0.727,-0.135,-56.824,-45.105,-221.619
-0.193,0.763,-0.199,-59.082,-46.021,-226.440
-0.130,0.840,0.054,-61.096,-67.810,-227.173
-0.050,0.981,-0.030,-55.542,-55.725,-224.060
