aX,aY,aZ,gX,gY,gZ
-0.342,1.294,-0.384,-55.176,-3.662,85.815
-0.302,1.153,-0.358,-45.166,1.709,74.219
0.057,1.241,-0.672,-22.217,21.118,59.021
-0.622,1.306,-1.165,-18.005,27.954,60.425
-0.165,1.220,-0.292,-12.512,22.888,63.049
-1.058,1.495,-0.729,-13.306,17.151,63.904
-0.049,1.511,-0.377,-1.709,14.893,45.593
0.189,1.709,-0.704,1.709,2.930,23.621
0.133,1.998,-0.292,-8.362,-0.305,10.620
-0.203,2.617,-0.386,-20.508,3.235,13.245
0.140,2.664,-0.444,-33.386,2.869,32.349
-0.262,2.794,0.073,-28.320,17.883,44.678
0.069,2.283,0.139,-21.790,53.528,52.979
0.378,2.180,0.306,-1.709,104.858,59.692
0.319,1.743,0.139,8.606,121.887,68.054
-0.025,1.638,-0.144,6.165,123.901,82.275
0.727,1.508,-0.132,3.540,113.647,88.074
0.370,1.362,-0.202,-8.667,90.088,107.117
1.156,1.435,-0.184,-5.615,67.444,106.506
0.894,1.151,0.113,-12.390,59.448,116.577
0.506,1.027,0.003,-30.212,45.166,141.113
0.564,1.053,-0.138,-43.579,24.414,155.762
0.774,1.171,-0.166,-59.814,7.324,162.842
0.796,1.396,-0.126,-68.481,-0.427,171.204
0.805,1.352,-0.195,-74.097,-6.653,181.885
0.175,1.221,-0.486,-87.646,-12.329,201.843
0.112,1.452,-0.432,-86.060,-4.456,211.487
0.704,1.616,-0.136,-80.078,13.550,210.327
0.788,1.625,-0.057,-72.388,35.522,216.248
0.535,1.619,0.049,-60.486,62.439,218.445
0.677,1.456,0.176,-52.490,89.661,209.106
1.042,1.372,0.204,-45.471,103.699,203.674
1.160,1.226,0.219,-34.058,106.995,201.904
1.193,1.126,0.206,-21.851,106.567,193.787
1.345,1.119,0.116,-11.658,97.534,172.974
1.255,1.361,0.057,-6.531,79.285,152.222
1.154,1.343,-0.060,-1.953,53.101,128.967
1.039,1.225,-0.143,-4.150,29.114,98.328
0.943,1.208,-0.107,-6.104,8.179,67.627
0.803,1.284,-0.086,-6.348,-16.479,40.833
0.663,1.275,-0.115,-2.502,-40.100,15.869
0.563,1.150,-0.116,5.554,-53.711,-11.658
0.422,1.021,-0.133,19.775,-54.688,-44.250
0.350,0.925,-0.194,40.649,-49.622,-74.890
0.243,0.895,-0.255,61.523,-45.532,-105.530
0.164,0.905,-0.360,79.773,-43.274,-135.254
0.019,0.797,-0.463,93.384,-38.452,-163.757
0.010,0.711,-0.527,101.929,-32.349,-193.054
0.028,0.726,-0.541,111.389,-27.283,-221.985
0.088,0.694,-0.572,117.859,-27.710,-250.916
0.021,0.725,-0.564,122.070,-26.550,-279.785
-0.018,0.770,-0.559,125.732,-17.883,-307.983
-0.073,0.829,-0.499,128.235,-1.892,-332.031
-0.051,0.880,-0.436,128.601,16.968,-351.685
-0.033,0.964,-0.358,126.953,34.485,-369.629
-0.060,1.047,-0.359,124.268,50.720,-385.498
-0.147,1.088,-0.376,120.178,70.313,-398.743
-0.275,1.107,-0.383,115.906,91.003,-409.607
-0.307,1.060,-0.279,104.187,98.633,-419.434
-0.183,1.181,-0.251,83.679,80.017,-432.556
-0.200,1.553,-0.161,65.186,42.114,-443.665
-0.412,1.868,-0.151,52.307,-3.906,-442.444
-0.756,2.059,-0.205,40.100,-45.593,-432.312
-1.201,2.255,-0.256,26.184,-73.181,-416.809
-1.767,2.536,-0.366,10.010,-82.458,-393.311
-2.563,2.896,-0.530,-0.793,-66.467,-355.591
-3.127,3.112,-0.673,8.789,-40.955,-297.974
-3.204,2.804,-0.992,24.536,-29.541,-237.122
-3.137,1.960,-1.370,8.728,-31.006,-189.758
-2.907,1.542,-1.520,6.958,1.709,-97.839
-2.508,1.232,-1.399,6.042,-48.645,-24.414
-3.060,1.081,-0.794,8.789,-140.991,6.775
-2.843,0.639,-0.939,10.986,-68.604,40.527
-2.908,0.895,-0.858,-0.488,-23.193,86.243
-2.645,1.019,-0.729,7.874,-33.630,138.855
-1.989,0.938,-0.488,2.136,-40.833,184.631
-1.071,0.912,-0.150,-14.465,-56.519,184.875
-1.311,0.557,-0.874,-71.716,-103.577,214.111
1.481,1.356,-0.215,-117.676,-132.141,197.632
1.910,1.739,0.508,-144.653,-117.004,167.664
-3.126,2.689,-0.283,-189.270,-119.202,217.651
-2.414,3.580,-0.146,-162.415,-91.675,276.062
-0.148,2.287,-0.176,-118.042,4.456,274.780
-0.456,0.870,-1.005,-86.731,68.848,273.865
-1.358,0.503,-1.853,-94.543,29.297,252.136
-1.925,0.813,-0.860,-92.896,42.236,195.068
-2.016,0.747,0.331,-92.163,59.448,174.072
0.654,0.513,-0.172,-143.127,24.475,106.018
0.124,2.165,0.226,-132.263,-0.305,78.491
-0.327,1.671,-0.411,-118.103,-12.451,41.992
-0.779,1.447,-0.643,-93.140,-8.728,76.660
-0.848,1.404,-0.345,-28.870,21.851,103.149
-0.474,1.005,-0.875,7.507,50.964,98.938
0.158,1.155,-0.657,5.554,41.260,80.505
0.066,1.444,-0.660,-5.371,25.024,60.669
-1.021,1.560,-1.097,-15.625,16.052,57.678
0.034,1.438,-0.442,-20.691,17.517,48.828
-0.882,2.155,-0.494,-12.695,12.207,53.894
0.152,2.323,0.126,-11.658,15.503,39.185
0.802,2.381,-0.305,-21.179,7.935,37.109
0.488,2.658,-0.052,-29.419,2.197,46.997
0.031,2.719,0.102,-30.151,20.447,52.795
-0.334,2.242,-0.466,-30.334,48.035,63.171
0.020,2.387,0.176,-10.498,83.313,73.730
0.349,1.927,-0.024,1.282,106.812,82.031
0.937,1.650,0.252,2.625,112.610,99.670
1.336,1.417,0.047,1.343,96.375,112.732
0.960,1.246,-0.017,-12.695,64.026,125.549
1.000,1.247,-0.154,-22.644,44.495,134.216
0.431,1.250,-0.201,-41.077,24.597,159.668
0.273,1.344,-0.068,-57.434,16.296,176.758
0.990,1.398,-0.236,-61.707,10.498,173.523
1.380,1.299,-0.022,-63.477,13.245,176.331
1.133,1.060,-0.064,-66.589,17.883,184.998
0.525,1.064,-0.123,-77.454,24.048,194.885
0.584,1.444,-0.085,-71.960,34.424,200.623
1.212,1.465,0.030,-74.707,32.043,203.369
1.063,1.383,-0.019,-66.711,28.687,200.745
0.781,1.119,0.129,-67.078,36.438,193.237
0.769,1.191,0.230,-60.852,49.622,185.547
0.943,1.235,0.347,-44.983,61.584,175.110
1.183,1.252,0.266,-24.414,61.890,166.077
1.402,1.110,0.172,-7.080,53.345,150.574
1.487,1.273,0.060,7.202,34.119,133.606
1.275,1.237,-0.018,15.442,8.789,113.464
1.017,1.128,-0.122,13.916,-10.498,84.656
0.779,1.083,-0.090,8.545,-21.179,53.711
0.618,1.178,-0.064,3.662,-32.959,27.039
0.493,1.224,-0.076,3.418,-47.424,2.625
0.463,1.181,-0.123,8.728,-56.335,-24.780
0.407,1.066,-0.171,21.851,-54.504,-56.091
0.261,0.981,-0.225,41.565,-46.326,-87.524
0.182,0.937,-0.302,61.523,-36.499,-116.699
0.143,0.901,-0.396,77.881,-29.785,-145.325
0.062,0.811,-0.489,90.210,-23.315,-171.387
-0.022,0.722,-0.531,98.877,-16.479,-198.303
-0.054,0.782,-0.534,105.835,-8.972,-227.539
-0.097,0.843,-0.539,113.770,-2.686,-256.348
-0.141,0.828,-0.537,115.173,4.944,-283.020
-0.160,0.856,-0.507,115.295,20.447,-308.350
-0.132,0.891,-0.488,113.708,40.710,-333.740
-0.125,0.995,-0.413,109.680,61.584,-352.356
-0.061,1.106,-0.293,106.506,77.637,-366.150
0.006,1.135,-0.212,98.694,82.825,-379.150
-0.047,1.226,-0.231,90.942,87.891,-392.395
-0.106,1.301,-0.162,84.961,95.459,-404.358
-0.148,1.354,-0.049,69.824,91.370,-414.978
-0.223,1.512,-0.041,49.683,70.618,-422.852
-0.303,1.831,-0.009,37.231,39.246,-421.570
-0.463,1.934,-0.044,28.503,4.761,-409.851
-0.748,2.028,-0.073,19.165,-23.437,-397.644
-1.051,2.246,-0.144,13.184,-51.941,-386.902
-1.544,2.315,-0.224,4.089,-65.125,-364.746
-2.238,2.661,-0.365,3.052,-54.382,-330.750
-2.822,2.832,-0.500,23.010,-32.166,-282.349
-2.938,2.400,-0.730,33.142,-21.423,-229.980
-1.986,1.869,-1.176,22.766,21.545,-162.720
-2.308,1.626,-1.326,16.968,-8.911,-85.632
-3.146,1.231,-0.770,-8.789,-157.898,-32.959
-2.867,0.940,-0.785,15.198,-93.506,8.057
-3.162,0.775,-0.723,25.757,9.338,39.124
-2.834,0.709,-0.559,17.090,-13.306,92.407
-2.183,0.755,-0.629,-14.771,-47.424,125.122
-1.969,0.800,-0.605,-35.828,-72.021,132.019
-1.769,0.865,-0.313,-35.889,-82.947,163.818
-0.662,0.859,-0.908,-66.833,-107.788,174.683
-0.110,0.240,-2.869,-187.683,-141.052,190.491
2.093,2.182,0.512,-196.533,-42.053,144.836
-1.679,3.543,0.787,-172.668,-11.169,217.896
-3.092,3.747,-0.135,-117.981,-46.204,298.584
-0.118,2.272,-0.258,-112.549,4.395,290.649
-1.284,1.328,-0.472,-107.361,87.646,283.813
-1.351,0.208,-1.622,-112.915,63.538,252.136
-1.183,1.045,-1.264,-91.675,32.471,208.862
0.055,0.440,0.550,-83.618,66.345,166.870
-1.275,1.051,-0.255,-115.417,44.067,147.583
-0.658,1.508,-0.631,-106.750,15.442,125.366
-0.883,1.773,-0.470,-83.923,-0.366,118.774
0.427,1.403,-0.135,-72.144,-6.165,80.872
-0.255,1.032,-0.365,-65.674,8.484,86.365
-0.307,1.404,-0.736,-23.682,38.452,81.665
-0.202,1.193,-0.583,-11.841,44.678,75.439
-1.168,1.288,-0.988,-17.395,42.725,71.777
-0.115,1.070,-0.757,-15.747,33.386,61.340
-0.215,1.481,-0.422,-6.104,26.550,50.110
0.541,1.527,-0.271,-0.977,25.818,31.311
0.023,1.998,-0.577,-5.432,14.832,29.053
-0.519,2.669,-0.203,-7.446,10.864,33.508
-0.019,2.377,-0.789,-23.071,9.094,39.490
-0.395,2.910,-0.050,-7.568,21.973,57.434
0.651,2.134,0.300,0.305,50.781,62.195
0.181,1.982,0.004,8.179,84.778,72.327
0.231,1.862,0.035,16.785,90.576,81.238
0.767,1.630,-0.031,11.475,83.191,91.003
0.166,1.499,-0.433,-3.967,67.200,103.027
0.796,1.444,-0.128,-10.681,61.096,108.154
0.885,1.253,-0.274,-17.151,53.589,111.572
1.100,1.167,-0.146,-20.874,41.931,118.896
1.104,1.207,-0.261,-24.902,20.630,128.540
0.345,1.138,0.022,-43.640,9.766,153.137
0.620,1.328,-0.304,-56.763,3.174,161.743
0.769,1.372,-0.171,-62.378,7.935,168.274
0.968,1.315,-0.082,-61.768,14.282,177.368
1.046,1.050,-0.048,-64.941,23.193,189.514
0.599,1.134,-0.177,-80.139,31.250,205.017
0.696,1.728,-0.003,-85.205,33.508,224.792
0.865,1.556,-0.153,-55.298,41.199,214.478
0.579,0.792,-0.031,-48.279,54.871,201.965
0.839,1.098,0.228,-53.528,65.002,200.134
1.099,1.220,0.324,-45.166,74.463,182.922
1.159,1.161,0.321,-35.583,74.707,169.617
1.129,1.112,0.259,-25.757,66.101,159.668
1.248,1.057,0.194,-18.066,49.194,142.456
1.382,1.229,0.061,-10.864,19.348,123.474
1.244,1.295,-0.053,-2.258,-13.428,103.760
1.033,1.177,-0.179,1.099,-37.598,78.430
0.765,1.141,-0.169,2.869,-50.598,51.575
0.482,1.201,-0.141,8.179,-58.350,26.672
0.381,1.160,-0.158,17.578,-63.660,0.122
0.249,1.125,-0.210,28.564,-62.073,-20.996
0.138,1.110,-0.253,46.692,-49.866,-45.044
0.121,1.002,-0.323,66.589,-36.560,-72.876
0.113,0.881,-0.401,82.703,-28.625,-102.051
0.141,0.826,-0.501,95.520,-23.010,-132.690
0.064,0.767,-0.545,103.760,-18.005,-162.537
-0.046,0.778,-0.576,107.361,-10.193,-192.017
-0.186,0.889,-0.568,112.305,2.930,-218.384
-0.263,0.872,-0.487,118.225,16.479,-241.760
-0.243,0.872,-0.440,121.338,25.940,-264.954
-0.216,0.900,-0.404,123.413,32.593,-287.964
-0.201,0.941,-0.389,123.474,39.001,-307.739
-0.199,0.946,-0.358,119.385,44.434,-322.754
-0.126,0.995,-0.341,111.938,46.509,-336.731
-0.065,1.074,-0.326,103.210,44.312,-348.206
-0.052,1.131,-0.333,95.154,40.649,-361.084
-0.127,1.187,-0.328,86.304,39.429,-374.817
-0.177,1.317,-0.341,75.623,31.921,-387.329
-0.310,1.472,-0.336,65.918,19.226,-397.339

-0.361,1.477,-0.379,-84.595,-8.179,70.923
0.151,1.561,-0.162,-39.551,0.977,99.182
-0.265,1.289,-0.281,-17.517,34.790,100.952
-0.572,1.471,-0.244,-10.498,48.401,100.952
-1.372,1.244,-1.151,-15.686,37.903,94.727
-0.332,1.127,-0.715,-13.000,30.640,70.862
0.231,1.102,-0.633,-13.245,30.762,45.959
0.179,1.527,-0.367,-13.794,33.630,27.588
-0.354,1.878,-0.818,-14.587,26.367,26.855
0.349,2.317,-0.098,-15.076,17.700,30.518
-0.556,2.727,-0.545,-18.494,12.085,41.321
0.379,2.587,-0.086,-14.771,20.691,53.955
0.125,2.525,0.199,-3.601,37.476,67.383
0.587,1.950,0.244,1.587,57.251,68.542
0.159,1.831,-0.073,-1.709,61.523,78.369
0.196,2.098,0.336,8.606,67.139,82.886
0.070,1.402,-0.516,-5.676,66.772,98.633
0.406,1.631,-0.052,-8.301,50.964,113.647
1.224,1.305,-0.159,-8.118,39.551,108.704
1.170,1.076,-0.050,-16.724,37.720,114.929
1.007,1.024,-0.256,-23.132,27.954,125.000
0.692,1.037,-0.095,-39.551,15.808,142.822
0.482,1.202,-0.318,-60.364,-1.892,155.762
0.715,1.391,-0.167,-64.209,-6.714,157.288
0.850,1.156,-0.038,-70.129,6.836,157.898
0.909,1.152,0.014,-74.585,27.222,162.109
0.785,1.140,-0.072,-84.290,40.894,174.927
0.702,1.680,-0.016,-94.971,42.603,199.768
0.692,1.585,-0.274,-56.641,48.767,193.298
0.234,0.739,-0.035,-57.800,56.885,194.519
0.777,1.179,0.123,-60.181,56.641,206.299
0.989,1.393,0.353,-48.462,60.974,191.345
0.945,1.159,0.248,-42.175,62.500,176.880
1.090,1.126,0.218,-37.354,60.974,165.588
1.146,1.068,0.198,-26.489,49.866,151.978
1.137,1.010,0.100,-24.231,33.569,131.531
1.047,1.235,-0.017,-14.648,15.381,112.244
0.891,1.159,-0.103,-7.751,-2.075,92.896
0.685,1.082,-0.111,-4.089,-15.015,68.359
0.580,1.063,-0.063,0.427,-25.146,44.495
0.465,1.191,-0.059,8.423,-35.645,20.020
0.378,1.194,-0.092,19.348,-42.908,-5.310
0.320,1.186,-0.111,34.119,-42.480,-29.541
0.290,1.106,-0.166,50.415,-39.368,-56.824
0.294,1.015,-0.253,66.956,-38.147,-85.693
0.256,0.958,-0.323,81.909,-42.480,-114.441
0.243,0.857,-0.421,92.957,-50.964,-143.372
0.157,0.826,-0.462,99.426,-58.044,-173.401
-0.054,0.902,-0.522,105.164,-52.979,-201.294
-0.292,0.984,-0.561,116.699,-34.485,-224.060
-0.245,0.878,-0.534,125.244,-13.367,-247.803
-0.156,0.924,-0.531,129.883,-0.122,-269.531
-0.135,1.003,-0.550,134.521,10.010,-288.574
-0.228,1.064,-0.540,135.498,28.015,-304.260
-0.304,1.144,-0.466,133.301,49.561,-315.918
-0.247,1.180,-0.364,127.991,61.951,-325.745
-0.144,1.224,-0.323,119.141,64.758,-335.693
-0.219,1.323,-0.329,113.403,69.214,-345.276
-0.351,1.319,-0.309,108.337,75.745,-354.980
-0.497,1.319,-0.224,102.661,75.317,-363.586
-0.453,1.328,-0.195,91.614,54.932,-372.253
-0.350,1.442,-0.170,78.003,19.165,-382.446
-0.465,1.605,-0.225,66.956,-13.977,-388.855
-0.690,1.771,-0.229,60.669,-41.870,-384.460
-0.873,1.830,-0.288,55.603,-69.397,-371.704
-1.157,1.894,-0.373,45.959,-86.426,-353.027
-1.649,2.055,-0.461,41.748,-85.999,-327.148
-2.166,2.160,-0.593,42.297,-73.242,-294.922
-2.417,2.202,-0.743,40.710,-59.387,-256.836
-2.160,2.081,-0.936,40.833,-39.856,-205.139
-2.041,1.907,-1.341,36.560,-47.546,-124.695
-2.778,1.412,-1.228,11.658,-136.169,-92.285
-2.525,1.307,-1.551,17.273,-101.135,-54.138
-2.779,0.924,-1.412,15.869,-35.889,-15.503
-2.620,0.848,-1.217,15.564,-39.551,36.926
-2.254,0.820,-1.125,15.503,-43.701,92.224
-2.057,0.622,-1.143,-6.775,-32.654,113.586
-1.675,0.771,-0.960,-32.837,-30.945,125.488
-1.550,0.880,-0.633,-40.771,-35.339,152.161
-1.206,0.794,-0.357,-49.500,-52.917,179.932
-0.276,0.593,-0.782,-102.905,-90.454,172.180
1.951,0.729,-1.604,-175.110,-132.141,157.227
2.665,2.247,0.447,-140.869,-65.979,145.081
-2.669,2.896,-0.111,-149.048,-51.514,240.417
-3.086,3.417,-0.092,-148.437,-46.082,285.034
-1.367,2.110,-0.690,-151.489,2.502,272.827
-0.145,1.315,-0.017,-114.014,76.294,252.869
-0.250,-0.057,-1.008,-105.286,70.007,235.840
-0.467,0.408,-1.475,-150.085,11.169,187.439
-1.031,1.606,-0.051,-110.107,29.419,163.757
-2.276,1.302,-0.306,-114.624,9.827,145.813
-0.278,1.428,-0.215,-125.366,-0.671,102.295
0.392,2.020,0.197,-87.341,3.296,82.764
0.062,1.336,-0.212,-84.290,2.380,68.115
-0.851,1.350,-0.501,-53.162,6.409,109.985
-0.892,0.838,-0.790,-30.151,25.696,110.291
-0.670,0.940,-0.685,-20.691,33.203,95.764
0.289,0.935,-0.584,-16.724,22.034,67.383
-0.073,1.360,-0.709,-16.418,23.376,49.622
-0.261,1.396,-0.528,-21.667,26.245,40.466
-0.066,1.738,-0.127,-19.775,14.832,41.626
-0.849,1.734,-1.163,-24.902,-3.113,46.814
0.114,2.041,-0.220,-12.878,4.028,41.565
-0.058,2.196,-0.261,-19.348,10.742,28.564
0.773,2.483,0.138,-23.254,15.259,33.569
0.404,2.472,0.029,-34.058,20.447,47.729
-0.607,2.644,-0.151,-30.029,47.607,63.354
-0.112,1.965,-0.310,-26.978,67.017,77.759
-0.381,2.134,0.011,-19.958,86.426,85.022
0.485,1.883,0.151,-5.615,113.708,76.355
0.947,1.474,0.124,-15.503,107.727,91.187
1.037,1.331,0.144,-23.621,89.417,102.539
0.938,1.146,0.084,-32.654,69.885,112.549
0.754,1.052,-0.220,-42.419,48.950,122.620
0.539,1.094,-0.181,-57.556,26.794,140.869
0.325,1.235,-0.190,-72.388,12.573,153.931
0.585,1.435,0.000,-73.547,18.616,152.771
1.093,1.343,0.011,-69.519,26.428,153.992
1.027,1.056,0.091,-70.496,29.907,168.640
0.741,0.934,-0.052,-80.505,30.945,183.044
0.388,1.117,-0.319,-85.022,37.292,193.542
0.559,1.442,0.008,-90.393,43.640,205.750
0.853,1.675,-0.035,-74.768,42.236,209.717
0.398,0.896,-0.110,-60.486,55.298,186.096
0.382,0.977,0.076,-74.768,71.533,187.561
0.840,1.307,0.241,-65.735,83.313,180.115
0.998,1.346,0.287,-47.729,84.351,167.175
1.141,1.298,0.205,-35.095,72.083,155.640
1.232,1.366,0.099,-24.902,49.133,138.611
1.198,1.417,-0.008,-18.066,18.921,120.911
1.033,1.431,-0.119,-11.414,-5.859,100.891
0.756,1.295,-0.020,-7.507,-20.081,80.017
0.513,1.253,-0.004,-8.057,-31.555,60.425
0.422,1.328,-0.066,-0.549,-41.504,40.466
0.282,1.258,-0.086,9.766,-41.992,19.897
0.188,1.196,-0.078,23.804,-35.095,-4.028
0.191,1.040,-0.114,41.748,-26.489,-33.020
0.167,0.894,-0.164,56.824,-21.057,-65.125
0.117,0.825,-0.227,69.641,-20.447,-97.656
0.093,0.723,-0.268,81.360,-21.729,-130.188
0.080,0.665,-0.302,90.271,-24.719,-161.682
0.006,0.676,-0.335,95.398,-25.879,-191.040
-0.110,0.774,-0.345,97.961,-20.447,-219.177
-0.162,0.848,-0.345,107.300,-8.667,-244.690
-0.027,0.782,-0.289,113.037,0.061,-269.104
-0.050,0.816,-0.238,115.662,8.789,-291.260
-0.115,0.921,-0.198,119.080,21.057,-306.824
-0.157,0.974,-0.182,119.507,33.997,-320.496
-0.170,1.056,-0.175,118.042,50.598,-331.665
-0.080,1.119,-0.167,114.807,56.885,-341.614
-0.062,1.177,-0.193,109.497,57.312,-349.792
-0.093,1.240,-0.215,104.004,58.411,-359.741
-0.251,1.342,-0.179,100.586,60.791,-372.253
-0.472,1.425,-0.154,95.093,54.199,-384.399
-0.479,1.522,-0.201,85.083,32.898,-398.376
-0.485,1.647,-0.287,72.937,4.333,-411.133
-0.635,1.761,-0.359,68.970,-20.325,-407.471
-0.708,1.755,-0.268,64.209,-45.044,-398.071
-0.870,1.894,-0.317,57.373,-68.359,-381.897
-1.447,2.156,-0.408,50.232,-73.730,-353.577
-2.121,2.330,-0.563,46.753,-61.340,-319.031
-2.592,2.442,-0.786,45.471,-46.021,-278.809
-2.562,2.343,-0.969,43.457,-46.021,-234.680
-1.839,1.959,-1.296,29.541,-10.925,-163.025
-2.363,1.526,-1.740,7.568,-84.045,-96.008
-2.827,1.579,-1.188,-0.854,-183.960,-50.171
-2.804,1.156,-1.611,21.851,-65.247,-7.141
-2.929,0.828,-1.382,26.367,-13.000,45.105
-2.761,0.798,-1.204,2.380,-43.579,92.712
-2.547,0.845,-1.193,-16.724,-35.156,117.920
-2.323,0.840,-1.013,-29.480,-22.827,146.545
-1.640,1.032,-0.990,-47.729,-26.001,165.527
-1.557,0.716,-2.342,-124.084,-68.176,204.468
1.635,1.857,-0.508,-144.287,-60.730,183.533
2.170,2.387,1.198,-120.300,5.310,182.739
-1.875,2.603,0.143,-137.634,-18.738,251.648
-2.223,2.345,-0.391,-149.048,-27.283,277.649
-1.256,1.707,-0.895,-141.296,24.902,269.775
-0.143,0.870,-0.951,-122.864,56.519,245.056
-0.108,0.105,-1.010,-144.287,20.142,210.815
-0.534,0.871,-0.595,-138.977,-0.854,166.870
-1.793,1.337,-0.376,-106.262,23.376,160.339
-1.391,1.587,-0.167,-105.164,27.832,136.108
-0.035,1.386,-0.380,-105.774,23.499,105.347
0.538,1.586,0.082,-86.121,14.832,91.675
-0.403,1.576,-0.210,-71.838,14.343,94.543
-0.913,1.431,-0.223,-53.223,14.221,97.900
-1.266,1.012,-1.138,-45.288,11.475,99.731
-0.461,1.203,-0.682,-9.033,29.114,92.651
0.296,0.843,-0.543,-8.789,41.077,61.096
0.013,1.339,-0.414,-10.742,43.152,44.983
-0.458,1.367,-0.800,-21.790,30.273,36.438
0.184,1.623,-0.323,-27.161,12.573,30.212
-1.074,2.161,-0.790,-19.470,9.033,34.973
0.148,1.877,-0.439,-12.756,23.987,21.667
0.074,2.300,-0.153,-10.986,28.015,31.616
0.769,2.295,0.204,-8.301,41.626,42.908
-0.054,2.293,-0.386,-15.076,45.105,61.707
-0.023,2.621,0.510,-4.822,49.194,69.702
-0.325,2.071,-0.386,-16.052,64.392,78.308
-0.075,2.188,0.174,1.038,86.365,77.942
0.930,1.441,-0.120,-5.127,94.116,78.369
1.178,1.551,0.063,-14.832,81.909,95.215
1.059,1.309,-0.055,-24.719,63.721,114.868
1.124,1.214,-0.075,-32.715,48.706,128.845
0.700,1.175,-0.282,-43.579,27.710,148.071
0.662,1.251,-0.161,-60.059,7.996,167.175
0.440,1.458,-0.052,-73.792,1.770,176.697
1.026,1.597,-0.028,-70.862,4.578,172.363
1.204,1.322,0.121,-71.350,7.812,184.387
1.079,1.114,0.161,-70.557,12.329,194.824
0.668,0.852,-0.055,-76.111,19.104,200.073
0.174,1.075,-0.113,-80.444,30.212,205.200
0.522,1.515,0.215,-88.257,38.025,215.271
0.850,1.863,0.071,-71.045,36.072,212.646
0.368,0.986,0.004,-54.810,49.377,183.777
0.425,1.030,0.179,-71.411,65.247,185.913
0.903,1.430,0.298,-54.932,71.594,178.772
0.971,1.363,0.221,-36.499,68.176,168.945
1.073,1.338,0.125,-23.010,55.969,154.419
1.146,1.385,0.040,-11.353,38.269,136.780
1.117,1.409,-0.049,-3.601,14.160,119.141
0.976,1.271,-0.127,-1.587,-3.967,96.680
0.676,1.232,-0.079,-1.953,-11.658,74.585
0.527,1.278,-0.114,2.075,-21.301,52.673
0.441,1.248,-0.164,6.592,-29.602,28.748
0.282,1.261,-0.207,15.991,-29.297,2.380
0.149,1.211,-0.198,33.630,-22.888,-25.757
0.197,1.037,-0.235,53.589,-14.160,-54.199
0.212,0.917,-0.282,69.641,-7.751,-84.717
0.214,0.881,-0.344,84.778,-5.127,-117.004
0.265,0.775,-0.398,97.107,-7.385,-149.536
0.257,0.767,-0.425,102.234,-11.902,-180.725
0.109,0.834,-0.513,104.126,-15.015,-209.290
-0.173,0.907,-0.554,108.032,-9.583,-233.826
-0.159,0.873,-0.589,115.723,2.625,-259.155
0.058,0.881,-0.538,118.774,8.728,-282.715
0.081,0.974,-0.506,121.521,5.798,-303.345

-0.786,1.971,-0.440,137.756,9.949,-378.479
-0.688,1.760,-0.479,116.943,-37.659,-379.211
-0.867,1.927,-0.514,82.458,-81.238,-386.658
-1.172,2.311,-0.666,62.256,-113.708,-380.066
-1.741,2.758,-0.908,43.823,-124.451,-360.291
-2.426,3.109,-1.043,27.954,-117.188,-316.284
-2.794,3.082,-1.170,25.940,-108.337,-248.230
-2.820,2.477,-1.388,27.039,-108.398,-170.776
-2.808,1.593,-1.695,14.038,-110.596,-103.882
-2.677,1.060,-1.759,-11.353,-108.643,-52.673
-2.603,1.011,-1.659,-31.921,-105.225,-11.169
-2.781,0.994,-1.463,-49.927,-99.609,31.067
-2.953,1.033,-1.303,-62.927,-98.083,69.336
-2.693,1.083,-1.221,-69.092,-99.365,110.046
-1.948,0.842,-1.761,-89.050,-114.868,140.137
-1.081,0.887,-2.948,-137.146,-118.225,149.414
2.654,1.693,-0.096,-154.846,16.357,108.948
0.365,3.548,0.666,-164.734,109.924,163.513
-3.228,3.712,-0.452,-162.781,50.293,279.663
0.805,2.841,-0.814,-146.057,19.470,290.894
-0.077,1.015,-1.510,-137.878,46.082,279.724
-0.815,1.120,-0.782,-120.728,53.345,275.757
-0.887,0.084,-0.463,-96.497,47.363,263.733
-1.469,-0.282,-0.836,-103.821,47.546,210.205
-0.417,0.703,-0.752,-101.685,14.343,156.189
0.528,1.259,-0.305,-98.389,-20.874,120.605
0.244,1.842,-0.666,-103.455,-41.809,85.815
-0.492,2.218,-0.531,-86.975,-59.814,92.407
-0.539,2.081,-0.302,-46.509,-109.863,134.949
-0.999,1.307,-0.455,-52.246,-168.945,193.787
0.254,1.012,-0.214,-88.440,-227.478,258.179
0.308,0.658,-0.718,-111.755,-296.021,250.183
-0.327,1.029,-0.894,-90.210,-265.930,167.542
0.058,1.508,-1.633,-57.678,-44.128,95.276
-0.772,1.543,-2.808,-61.340,238.220,49.500
-0.495,2.168,-1.347,-89.172,431.702,52.429
0.052,1.912,-0.586,-86.609,490.112,47.119
1.002,2.504,0.433,-5.737,463.623,-10.437
1.204,2.183,0.418,47.058,350.037,-42.480
-0.463,2.423,0.084,11.169,223.022,-10.803
-0.104,2.198,-0.489,3.662,170.898,36.011
-0.637,2.061,-0.123,-2.869,133.850,59.631
0.753,1.622,-0.024,6.409,119.019,68.848
0.905,1.320,-0.078,-7.629,91.797,70.923
0.823,1.222,-0.222,-20.630,66.833,79.407
0.923,1.228,-0.143,-36.926,15.808,88.196
0.568,1.094,-0.495,-62.195,-27.466,96.863
0.606,1.240,-0.393,-54.138,-32.043,105.713
0.432,1.107,-0.438,-47.241,4.700,123.962
0.516,1.255,-0.420,-40.344,45.654,145.081
0.909,1.246,-0.328,-47.791,47.424,157.837
0.798,1.297,-0.116,-59.204,34.790,167.786
0.738,1.280,-0.088,-65.491,23.071,187.744
0.417,1.155,-0.367,-88.135,16.052,180.847
0.068,1.340,-0.660,-106.628,9.644,147.949
0.527,1.650,-0.565,-111.389,13.245,150.452
1.077,1.855,-0.418,-118.286,27.222,149.902
1.069,1.897,-0.195,-122.375,43.091,166.077
1.005,1.762,-0.253,-111.938,63.538,195.129
0.791,1.467,-0.106,-96.191,99.060,197.571
0.952,1.733,-0.079,-70.068,129.883,198.792
0.927,1.476,0.078,-69.885,111.694,177.246
1.055,1.600,0.033,-56.641,109.863,174.622
1.133,1.709,-0.099,-39.368,106.445,165.710
1.131,1.747,-0.180,-33.142,76.965,144.287
1.052,1.327,-0.180,-30.640,49.255,115.967
0.972,1.071,-0.221,-44.067,25.146,82.642
0.935,1.125,-0.211,-49.011,5.615,41.077
0.803,1.091,-0.233,-43.335,-9.155,2.319
0.510,0.978,-0.299,-3.723,-8.118,-0.061
0.341,0.922,-0.253,56.885,0.122,9.094
0.319,0.723,-0.231,111.511,1.038,0.122
0.273,0.367,-0.209,129.395,-23.254,-16.846
0.258,0.151,-0.227,114.929,-58.167,-72.266
0.292,0.057,-0.275,94.299,-96.680,-138.428
0.317,0.114,-0.245,93.750,-145.081,-189.148
0.348,0.263,-0.256,112.610,-194.092,-245.605
0.129,0.480,-0.309,145.264,-218.567,-279.175
0.082,0.558,-0.493,162.354,-202.332,-284.363
0.065,0.580,-0.564,164.917,-154.297,-285.217
-0.003,0.703,-0.637,175.720,-86.182,-283.203
-0.160,0.824,-0.631,199.768,-6.409,-278.625
-0.165,0.821,-0.630,209.656,67.139,-256.836
0.121,0.659,-0.376,212.036,107.178,-241.394
0.358,0.594,-0.171,209.717,99.487,-261.353
0.380,0.806,-0.151,183.105,62.683,-307.800
0.424,0.802,-0.166,158.691,21.667,-345.215
0.278,1.331,-0.137,140.564,-7.507,-377.441
0.151,1.310,-0.273,131.409,-20.996,-387.695
-0.283,1.643,-0.303,125.610,-16.479,-396.973
-0.559,1.745,-0.440,122.131,-8.423,-395.996
-0.642,1.913,-0.469,117.737,-9.521,-389.832
-0.769,1.989,-0.467,111.511,-25.818,-395.874
-0.778,1.940,-0.461,91.675,-62.561,-392.578
-1.138,2.226,-0.550,67.444,-105.652,-385.864
-1.600,2.597,-0.873,54.749,-113.464,-364.075
-2.273,2.929,-1.105,44.556,-101.868,-329.834
-2.956,3.131,-1.275,34.241,-90.881,-279.480
-3.140,2.737,-1.484,35.461,-92.834,-204.773
-3.040,2.045,-1.763,24.841,-108.948,-132.751
-2.843,1.349,-2.033,-6.897,-134.399,-73.547
-2.706,1.099,-2.065,-30.823,-133.850,-20.569
-3.231,1.042,-1.766,-49.133,-115.723,27.832
-3.195,0.965,-1.599,-55.420,-100.647,74.707
-2.369,0.807,-1.465,-74.219,-95.398,108.521
-2.880,0.939,-2.680,-125.793,-117.493,145.020
0.174,1.133,-2.523,-184.692,-117.188,133.240
2.969,3.074,1.502,-173.401,27.100,115.356
-1.645,4.000,-0.679,-171.875,28.931,223.755
-0.361,2.980,-0.725,-164.978,-26.306,280.762
0.312,2.051,-1.037,-144.226,0.061,258.850
-1.098,1.285,-0.362,-92.651,76.172,267.700
-1.172,-0.104,-0.896,-95.154,91.797,266.602
-0.785,-0.279,-2.678,-137.512,33.936,217.651
0.186,1.272,-0.243,-122.620,53.894,151.611
-0.649,1.331,-0.113,-96.619,59.021,144.409
0.428,1.504,-0.140,-95.154,30.518,132.996
0.315,1.890,0.165,-83.801,13.245,121.338
-0.901,1.357,-0.399,-86.304,-15.259,119.507
-1.271,1.226,-0.515,-81.421,-49.866,117.493
-0.055,0.964,-0.255,-54.321,-86.853,120.239
0.656,0.917,-0.246,-46.021,-128.723,111.023
0.125,1.163,-0.385,-63.965,-173.767,107.483
-0.375,1.171,-0.668,-101.257,-226.685,117.554
-0.546,0.991,-1.031,-116.272,-281.921,93.567
-0.885,0.873,-0.990,-83.679,-211.365,11.841
0.539,1.122,-2.119,-42.603,61.768,-56.335
0.076,1.867,-1.785,-49.927,354.980,-25.452
0.404,2.108,-0.794,-16.296,451.294,3.174
0.728,2.590,-0.510,3.052,419.800,10.681
0.878,3.025,0.250,23.865,328.369,49.316
-0.186,2.520,-0.061,-2.136,212.036,101.746
0.349,2.307,0.233,14.221,138.489,93.872
0.747,1.404,0.188,-21.606,91.675,84.412
0.384,1.436,0.068,-47.913,61.096,64.697
0.448,1.681,0.075,-53.772,51.758,41.870
0.364,1.501,-0.421,-51.819,53.467,38.147
0.232,1.714,-0.148,-40.894,72.815,67.871
0.388,1.520,-0.316,-31.616,86.365,103.821
0.837,1.347,-0.098,-24.292,90.576,120.239
0.980,1.073,-0.125,-30.518,77.209,134.277
0.712,1.038,-0.255,-52.185,56.580,151.672
0.807,1.301,-0.149,-67.505,37.415,161.316
0.728,1.382,-0.130,-86.182,20.752,174.805
0.752,1.560,-0.066,-88.074,22.461,182.861
0.857,1.384,-0.071,-92.957,26.367,195.740
0.429,1.323,-0.305,-107.849,31.860,215.881
0.164,1.442,-0.514,-107.544,44.312,223.389
0.513,1.515,-0.293,-109.253,58.167,217.834
0.804,1.577,-0.172,-110.352,64.270,210.144
0.899,1.520,-0.087,-110.107,71.289,193.054
0.902,1.377,-0.020,-111.084,82.153,173.218
0.827,1.356,-0.014,-103.088,96.130,157.715
0.838,1.291,0.020,-88.989,110.718,147.949
0.944,1.404,-0.013,-72.876,115.295,133.911
1.129,1.456,-0.036,-55.176,104.980,120.850
1.120,1.406,-0.084,-42.114,82.825,112.732
0.939,1.281,-0.141,-31.799,61.462,100.281
1.012,1.216,-0.107,-28.259,42.358,80.383
0.785,1.286,-0.172,-11.230,33.569,68.176
0.680,1.302,-0.154,9.399,28.748,60.242
0.525,1.127,-0.202,29.175,22.217,40.222
0.491,0.845,-0.108,35.522,-8.362,17.456
0.458,0.663,-0.149,47.119,-16.418,-5.310
0.323,0.466,-0.176,56.030,-17.151,-36.438
0.138,0.384,-0.228,66.650,-25.146,-85.266
0.038,0.357,-0.307,79.041,-38.086,-132.202
0.059,0.375,-0.355,92.346,-51.575,-166.626
0.096,0.317,-0.346,101.501,-68.542,-198.486
0.126,0.381,-0.365,112.976,-79.895,-230.347
0.140,0.367,-0.356,119.263,-103.821,-266.724
0.108,0.439,-0.393,125.977,-115.295,-313.477
0.043,0.481,-0.384,125.244,-128.723,-367.126
0.024,0.551,-0.346,124.573,-145.874,-418.457
0.106,0.612,-0.323,127.197,-162.292,-445.740
0.354,0.778,-0.333,138.794,-150.879,-419.678
0.641,1.290,-0.496,188.354,-85.388,-341.370
0.241,1.484,-0.625,239.868,6.958,-273.254
0.180,1.259,-0.625,224.548,67.932,-202.454
0.122,1.005,-0.390,225.403,87.952,-206.848
-0.197,0.903,-0.416,194.946,77.209,-290.588
-0.330,1.070,-0.380,151.184,45.837,-367.554
-0.298,1.694,-0.362,138.672,8.911,-380.615
-0.419,1.762,-0.391,107.544,-29.602,-404.846
-0.628,2.017,-0.461,91.675,-62.805,-403.931
-0.972,2.152,-0.604,77.271,-86.914,-388.977
-1.314,2.440,-0.846,64.270,-103.760,-364.380
-2.018,2.755,-1.100,45.166,-106.384,-336.975
-2.709,3.009,-1.248,27.649,-96.008,-301.025
-3.131,2.962,-1.461,20.813,-87.585,-236.450
-3.072,2.282,-1.690,15.137,-94.849,-159.546
-3.059,1.623,-1.943,-3.113,-105.103,-92.346
-2.847,1.138,-2.142,-19.043,-110.168,-37.537
-2.791,0.877,-1.892,-39.185,-100.281,3.845
-2.695,0.880,-1.785,-55.725,-87.463,43.274
-2.789,0.938,-1.606,-64.331,-75.012,85.876
-2.716,0.902,-1.349,-68.726,-54.993,123.047
-2.086,0.795,-1.332,-81.177,-47.058,154.419
-1.072,0.814,-1.652,-115.723,-48.279,168.152
2.845,1.527,0.412,-121.948,0.977,138.672
0.846,2.412,-0.149,-166.382,51.636,181.824
-2.047,3.282,-0.017,-168.274,24.109,234.680
-0.642,3.054,-0.991,-158.447,1.526,248.047
-0.473,1.465,-1.359,-159.119,18.738,258.606
-0.989,1.529,-1.520,-160.339,11.841,250.244
-0.670,0.692,-1.122,-135.132,24.353,233.582
-0.479,0.014,0.055,-104.431,69.702,194.092
-0.278,-0.017,-0.451,-115.723,68.420,153.870
0.166,0.904,-0.703,-127.136,44.739,82.031
-0.740,2.321,-0.475,-105.591,12.573,59.631
-0.960,2.223,-1.099,-75.928,-21.179,104.919
-0.436,1.700,-0.399,-27.832,-34.912,135.010
0.370,1.057,-0.226,-3.967,-50.781,145.203
0.161,1.006,-0.421,-13.367,-75.195,143.494
-0.142,1.109,-0.882,-33.508,-117.798,128.845
-0.100,1.357,-0.792,-60.974,-190.674,125.732
-0.604,1.220,-0.419,-97.473,-262.939,142.029
-0.242,1.510,-0.912,-69.275,-263.794,119.873
-0.017,1.881,-1.129,-51.331,-65.979,49.133
0.541,2.122,-1.412,-51.575,203.247,-1.709
-0.483,2.491,-1.488,-74.341,365.112,-4.028
0.197,3.069,-0.059,-41.199,419.556,1.831
0.316,2.502,-0.332,-13.794,403.992,37.048
0.238,2.321,0.580,16.418,366.150,65.002
0.739,1.427,0.196,13.123,266.235,73.730
0.297,1.486,0.163,-6.897,179.443,73.914
0.510,1.493,0.087,-25.940,136.353,75.500
0.769,1.266,-0.187,-46.082,84.351,81.421
0.643,1.443,-0.071,-60.242,34.485,96.924
0.917,1.238,-0.200,-75.867,-15.686,98.206
1.008,1.194,-0.072,-77.454,-26.917,95.825
0.825,1.148,-0.170,-78.125,-7.080,120.544
0.440,1.490,-0.375,-71.411,39.001,154.053
0.772,1.552,-0.278,-64.575,64.148,163.696
0.810,1.461,-0.151,-78.247,56.946,175.232
0.817,1.375,-0.161,-91.187,39.001,182.861
0.483,1.180,-0.353,-115.479,21.667,186.401
0.262,1.451,-0.474,-129.211,21.851,178.040

0.709,1.503,-0.306,-83.313,111.816,189.514
0.836,1.672,-0.143,-78.308,126.404,177.673
1.025,1.749,0.023,-74.036,133.850,167.480
1.196,1.711,0.150,-64.148,129.456,167.908
1.173,1.586,0.079,-54.260,118.042,168.579
1.194,1.420,0.059,-49.866,102.417,157.654
1.086,1.502,-0.048,-32.898,90.637,151.489
0.997,1.478,-0.200,-11.108,66.589,130.920
1.088,1.251,-0.174,-18.555,19.592,115.601
0.979,1.209,-0.288,-10.864,10.254,94.910
0.779,1.235,-0.363,-0.488,14.709,65.918
0.587,1.207,-0.421,16.418,21.851,37.109
0.461,1.069,-0.439,31.372,13.672,8.362
0.316,0.809,-0.397,52.246,-9.705,-21.912
0.310,0.468,-0.373,71.899,-38.025,-51.147
0.270,0.405,-0.298,96.069,-67.383,-79.895
0.164,0.226,-0.289,107.178,-92.957,-118.347
0.168,0.201,-0.308,114.868,-112.610,-160.828
0.115,0.441,-0.378,134.094,-124.084,-190.063
0.096,0.368,-0.358,146.484,-132.019,-216.858
0.078,0.413,-0.530,151.062,-100.159,-237.061
0.067,0.441,-0.530,158.813,-61.890,-257.568
0.055,0.314,-0.498,149.658,-48.950,-284.302
0.109,0.533,-0.506,154.663,-37.964,-302.551
0.139,0.677,-0.545,169.067,-20.386,-314.209
0.180,0.685,-0.513,175.476,-11.230,-324.585
0.266,0.731,-0.486,170.715,-13.489,-329.224
0.296,0.859,-0.430,157.837,-29.724,-328.491
0.167,0.956,-0.420,149.231,-37.476,-340.515
-0.070,0.977,-0.497,140.503,-30.212,-349.121
-0.250,1.208,-0.556,132.507,-18.677,-357.788
-0.402,1.366,-0.598,121.033,-10.986,-380.798
-0.574,1.690,-0.610,123.596,-10.742,-350.281
-0.507,1.585,-0.678,124.023,-20.935,-301.025
-0.856,1.764,-0.637,100.647,-49.988,-328.064
-1.068,1.781,-0.749,64.941,-92.468,-344.177
-1.543,2.279,-1.028,40.466,-111.694,-337.952
-2.269,2.574,-1.276,26.062,-107.239,-318.665
-2.813,2.843,-1.347,20.508,-82.520,-284.424
-3.141,2.588,-1.417,18.799,-66.772,-229.980
-3.252,2.137,-1.613,12.390,-60.669,-153.442
-3.007,1.641,-1.843,7.690,-60.852,-82.031
-2.661,1.083,-1.834,-12.573,-68.726,-30.762
-2.494,0.809,-1.677,-42.053,-64.941,7.629
-2.666,0.910,-1.358,-54.260,-52.185,46.509
-2.693,0.922,-0.976,-57.800,-41.992,89.478
-2.001,0.705,-0.886,-64.697,-44.067,121.948
-1.915,0.684,-1.012,-94.055,-59.204,153.259
-1.257,0.819,-1.803,-136.108,-92.590,182.007
1.699,1.641,0.605,-139.282,-52.917,155.762
1.018,2.192,-0.102,-167.175,1.221,165.100
-2.471,3.205,-0.691,-162.231,-10.925,226.807
-1.291,2.560,-1.442,-167.969,-23.499,266.418
0.447,1.891,-1.379,-172.485,-8.057,272.034
-0.956,1.346,-0.963,-152.893,4.700,254.578
-0.577,0.478,-0.182,-126.831,32.166,234.253
-1.293,-0.240,-0.738,-116.821,33.875,187.012
-1.040,0.858,-0.549,-134.033,14.160,134.521
-0.155,1.280,-0.583,-120.239,2.075,97.290
0.329,1.770,-0.371,-112.244,-2.563,77.759
0.056,1.939,-0.326,-94.910,8.484,82.031
-0.881,1.602,-0.528,-74.036,20.935,95.764
-1.183,1.028,-1.296,-56.519,12.329,107.910
-0.258,0.965,-0.695,-41.687,2.563,99.243
0.609,0.935,-0.452,-19.592,-41.992,85.266
0.182,1.169,-0.628,-28.015,-70.801,64.636
0.020,1.441,-1.044,-34.546,-66.589,47.180
0.046,1.734,-0.775,-45.044,-59.265,35.095
-0.600,1.964,-0.882,-49.805,-51.147,47.302
0.039,2.400,-0.733,-44.067,-22.217,73.486
-0.055,2.292,-0.126,-57.556,25.879,67.993
0.228,1.994,-0.178,-52.979,68.787,26.611
-0.310,1.924,-0.747,-59.998,84.412,1.465
0.043,2.396,0.141,-27.588,103.943,-17.639
-0.140,1.901,-0.997,-35.461,152.344,10.803
0.042,2.245,-0.260,-3.479,264.465,39.490
0.857,1.576,-0.337,16.052,320.801,86.243
0.981,1.394,0.018,6.409,304.687,120.300
1.178,1.173,0.100,1.404,232.666,117.004
1.035,0.993,-0.086,-23.071,142.395,110.596
0.538,1.121,-0.263,-45.349,69.275,117.859
0.789,1.102,-0.406,-61.707,18.127,122.375
0.673,1.277,-0.257,-82.458,0.305,135.559
0.907,1.433,-0.422,-84.534,0.916,143.616
0.967,1.458,-0.279,-94.421,18.311,134.338
0.959,1.596,-0.161,-89.905,40.222,150.452
0.937,1.492,-0.241,-93.079,52.429,182.373
0.671,1.489,-0.477,-111.633,57.068,207.764
0.355,1.522,-0.635,-118.530,57.861,215.088
0.565,1.586,-0.412,-127.380,66.101,204.102
0.812,1.772,-0.226,-133.057,75.134,185.364
0.732,1.872,-0.093,-133.972,81.970,172.913
0.836,1.837,-0.073,-124.695,87.097,154.236
0.707,1.355,-0.122,-96.313,121.216,145.508
0.582,1.667,-0.067,-35.889,167.358,160.034
0.814,1.639,0.019,-28.870,138.611,161.743
0.966,1.570,-0.170,-26.245,120.605,157.837
0.883,1.120,-0.167,-34.485,112.427,122.925
0.799,1.017,-0.168,-44.495,87.830,86.609
0.816,1.095,-0.198,-46.936,59.326,46.753
0.761,1.108,-0.246,-34.607,36.011,16.602
0.629,1.088,-0.252,-4.150,16.907,7.080
0.495,0.961,-0.246,28.625,-3.540,-2.441
0.459,0.667,-0.164,57.800,-27.588,-19.226
0.350,0.439,-0.100,77.942,-45.715,-45.715
0.150,0.348,-0.139,95.032,-55.908,-77.332
0.017,0.246,-0.166,97.290,-81.238,-120.850
0.096,0.209,-0.140,100.098,-116.089,-166.992
0.199,0.428,-0.208,123.291,-130.737,-193.665
0.121,0.482,-0.305,142.883,-135.559,-213.928
0.065,0.334,-0.342,144.287,-122.620,-242.920
0.031,0.492,-0.610,148.193,-67.383,-258.789
0.013,0.570,-0.478,164.856,-20.691,-269.348
0.075,0.718,-0.474,186.096,10.864,-274.353
0.208,0.643,-0.452,195.618,24.109,-270.569
0.205,0.642,-0.411,187.378,19.348,-280.945
0.211,0.666,-0.375,171.448,6.165,-315.247
0.262,0.778,-0.371,153.748,-14.832,-344.971
0.258,0.974,-0.336,144.165,-36.316,-367.737
0.257,1.056,-0.371,142.029,-48.218,-381.348
0.020,1.169,-0.429,143.372,-46.570,-388.245
-0.187,1.193,-0.561,138.367,-37.292,-381.531
-0.423,1.365,-0.575,130.005,-29.846,-379.089
-0.619,1.474,-0.638,120.178,-28.687,-377.319
-0.773,1.619,-0.632,119.751,-41.870,-350.342
-0.870,1.594,-0.699,104.797,-78.308,-324.646
-1.235,1.689,-0.934,71.899,-116.333,-332.886
-1.872,2.247,-1.209,50.293,-129.333,-337.891
-2.645,2.665,-1.413,29.297,-118.164,-324.524
-3.052,2.877,-1.506,16.602,-101.868,-280.151
-3.159,2.599,-1.596,12.695,-105.103,-209.656
-3.033,2.051,-1.849,15.198,-104.858,-135.803
-2.724,1.323,-2.183,0.061,-111.389,-75.867
-2.638,1.003,-2.214,-22.034,-108.276,-33.569
-2.761,0.901,-1.833,-37.231,-92.102,1.953
-2.539,0.776,-1.555,-59.570,-72.021,37.415
-2.432,0.988,-1.248,-74.158,-48.584,76.172
-2.530,0.996,-0.841,-69.824,-26.611,113.892
-1.400,0.778,-0.699,-79.224,-26.733,134.277
-0.230,0.477,-2.000,-132.324,-49.438,130.737
2.988,1.614,0.519,-148.071,8.301,89.844
0.117,2.934,-0.020,-192.322,72.388,158.447
-3.799,3.970,-0.896,-185.425,24.841,223.022
0.704,3.184,-1.045,-189.819,-13.855,257.874
0.213,1.491,-1.656,-182.617,24.658,277.344
-1.306,1.730,-1.174,-120.850,111.267,273.010
0.142,0.102,-0.026,-83.191,82.825,278.320
-1.387,-0.656,-1.032,-77.759,52.979,267.944
-1.083,-0.131,-0.827,-103.821,33.386,229.797
0.198,0.820,-0.164,-109.802,10.376,127.197
0.244,2.059,-0.730,-113.342,-7.751,65.063
-0.456,2.495,-0.804,-86.670,2.808,63.110
-0.854,1.984,-0.823,-62.500,5.005,123.779
-0.866,1.237,-0.393,-39.124,-12.085,177.063
0.329,0.746,0.022,-19.226,-75.378,203.552
0.339,0.551,-0.526,-11.780,-140.259,184.814
-0.017,0.927,-0.854,-41.138,-151.184,108.093
-0.349,1.303,-0.460,-68.909,-158.386,66.223
-0.977,1.358,-1.474,-99.609,-165.466,85.510
-0.579,1.629,-0.646,-118.469,-161.804,86.426
-0.598,1.357,-0.668,-92.041,-129.517,-1.953
0.289,1.957,-0.924,-44.861,56.213,-87.219
-0.053,2.413,-1.920,-82.703,299.683,-45.471
-0.716,2.921,-0.675,-65.674,444.092,-8.240
0.567,2.948,-0.400,-5.188,433.838,8.789
-0.033,2.412,0.232,7.507,350.098,48.096
0.809,1.982,0.360,37.537,227.783,60.791
0.683,1.466,-0.056,-2.869,135.193,72.327
0.510,1.368,-0.229,-24.353,102.356,72.449
0.687,1.375,-0.151,-42.114,63.416,69.763
0.501,1.407,-0.302,-61.035,24.231,73.120
0.963,1.406,-0.196,-51.575,9.033,67.383
0.932,1.214,-0.173,-47.913,6.104,67.688
0.833,1.231,-0.256,-45.349,10.010,100.464
0.429,1.315,-0.263,-50.110,21.912,136.658
0.459,1.521,-0.365,-56.885,32.227,151.306
0.776,1.531,-0.216,-73.364,27.954,155.823
0.614,1.557,-0.236,-94.543,23.376,162.292
0.328,1.451,-0.438,-115.051,26.978,165.466
-0.048,1.591,-0.717,-134.521,38.818,166.626
0.111,1.936,-0.674,-135.376,57.556,162.231
0.618,2.099,-0.456,-138.245,73.364,157.959
0.769,2.094,-0.309,-135.376,90.088,171.387
0.652,1.991,-0.184,-115.601,126.038,189.941
0.831,1.851,-0.113,-92.041,155.762,191.467
0.808,1.869,-0.012,-57.373,185.181,207.825
0.828,1.682,-0.074,-20.325,192.688,200.745
1.094,1.595,0.028,-31.433,143.066,191.895
1.236,1.373,-0.148,-34.546,120.605,173.828
1.115,1.139,-0.187,-40.955,104.858,143.982
0.888,1.124,-0.194,-41.565,83.435,115.601
0.769,1.120,-0.173,-33.936,55.664,91.919
0.724,1.065,-0.186,-18.250,28.320,72.998
0.686,0.922,-0.236,-6.042,9.766,46.753
0.582,0.770,-0.261,9.155,-5.798,14.404
0.463,0.600,-0.249,33.630,-18.311,-15.015
0.277,0.474,-0.241,66.101,-30.334,-38.818
0.146,0.329,-0.256,94.299,-39.185,-64.575
0.036,0.078,-0.256,108.032,-51.086,-102.844
0.048,-0.087,-0.293,108.765,-69.580,-150.208
0.113,-0.076,-0.339,109.253,-84.839,-189.758
-0.013,0.041,-0.343,122.681,-89.233,-221.985
0.109,-0.024,-0.379,135.986,-82.031,-250.549
0.238,-0.012,-0.388,137.939,-67.871,-273.499
0.191,0.124,-0.386,141.052,-51.025,-293.823
0.143,0.157,-0.372,138.184,-42.114,-314.819
0.155,0.317,-0.317,138.916,-40.955,-332.703
0.241,0.480,-0.264,149.170,-35.645,-343.994
0.297,0.584,-0.303,161.377,-25.879,-349.060
0.310,0.630,-0.287,169.067,-15.991,-353.943
0.355,0.745,-0.258,173.035,-13.550,-350.525
0.346,0.903,-0.238,172.058,-19.836,-340.393
0.241,0.935,-0.239,163.757,-25.085,-339.783
0.060,1.051,-0.232,150.696,-23.804,-350.891
-0.142,1.190,-0.230,132.935,-20.752,-380.981
-0.378,1.635,-0.213,139.038,-21.545,-355.408
-0.506,1.758,-0.283,140.686,-30.212,-331.238
-0.824,1.810,-0.345,129.639,-66.406,-347.595
-1.041,1.689,-0.542,106.445,-108.765,-349.976
-1.575,1.969,-0.805,86.487,-130.310,-359.192
-2.115,2.512,-1.091,66.040,-138.855,-361.816
-2.608,2.999,-1.341,42.297,-145.203,-335.144
-2.793,3.132,-1.504,25.635,-147.583,-272.827
-3.000,2.717,-1.809,25.818,-155.273,-186.890
-2.732,1.827,-2.120,13.062,-189.697,-113.647
-2.713,1.316,-2.272,-16.418,-195.190,-55.847
-2.975,1.145,-2.426,-32.288,-163.391,-12.573
-3.301,0.960,-2.296,-41.443,-120.544,30.579
-2.799,0.783,-1.909,-52.979,-78.369,69.885
-2.884,0.769,-2.328,-91.675,-58.472,102.661
-1.862,0.828,-3.945,-179.260,-75.012,134.888
1.653,2.417,0.583,-194.580,48.279,105.347
0.874,3.950,0.828,-160.156,154.480,167.175
-2.462,2.945,-0.281,-152.954,123.535,238.892
0.607,2.401,-1.010,-146.790,80.383,260.864
0.413,0.709,-1.773,-162.781,68.237,264.832
-0.618,0.681,-1.811,-169.861,37.903,252.563
-0.855,-0.084,-1.665,-146.667,9.644,216.736

-1.661,2.752,-0.897,32.471,-77.515,-364.563
-3.112,3.124,-1.371,13.733,-28.503,-279.236
-3.394,2.713,-1.586,17.212,-24.292,-210.815
-3.280,2.082,-1.774,8.484,-35.522,-136.169
-3.031,1.601,-1.858,-6.348,-46.997,-72.632
-2.799,1.196,-1.675,-26.489,-55.176,-18.921
-2.837,0.999,-1.472,-45.654,-57.129,28.992
-2.877,1.002,-1.274,-59.875,-54.932,74.097
-2.881,1.021,-1.000,-65.613,-46.204,115.295
-2.309,0.848,-0.722,-70.313,-45.166,147.278
-1.785,0.651,-0.716,-86.731,-54.199,169.617
-0.846,0.423,-1.488,-124.817,-88.867,182.251
2.584,0.829,-0.076,-125.122,-71.960,139.526
2.926,1.213,0.540,-131.775,21.118,120.178
-2.935,2.988,-0.702,-141.479,43.030,183.777
-2.619,2.786,-1.201,-170.593,-8.301,231.628
0.799,2.417,-2.280,-192.322,-40.222,244.568
-1.558,2.111,-1.496,-160.706,23.926,211.975
-0.822,2.254,1.181,-65.735,97.595,240.234
-0.760,-0.079,-0.369,-66.467,67.993,270.386
-1.211,0.306,-0.943,-91.858,37.964,203.369
0.199,0.520,-0.618,-87.402,16.357,120.972
-0.178,1.263,-0.562,-104.370,-6.348,73.303
0.612,1.824,-0.371,-73.486,-18.066,59.143
-0.310,1.908,-0.596,-45.349,-48.767,85.571
-0.248,1.680,-0.228,-21.851,-84.778,121.521
-0.789,0.887,-1.000,-31.311,-117.371,129.028
0.230,0.923,-0.498,-32.104,-119.019,99.731
0.497,1.021,-0.934,-42.847,-137.207,79.834
0.125,1.308,-0.212,-71.960,-194.519,69.336
-0.475,1.793,-0.753,-88.196,-232.910,78.796
0.144,1.840,-1.884,-66.101,-80.688,5.981
-0.353,2.219,-1.615,-75.012,225.769,-37.415
-0.312,2.878,-1.003,-35.767,429.932,5.188
0.588,2.814,0.268,7.812,481.750,52.612
1.355,1.931,0.264,-5.310,409.668,98.511
0.324,1.589,-0.104,-16.541,285.767,113.281
0.202,1.622,-0.056,-6.287,175.842,89.478
-0.334,1.540,-0.537,-27.100,132.324,93.811
0.671,1.453,-0.070,-25.085,111.328,82.764
1.219,1.031,0.069,-49.988,57.617,65.186
1.206,1.192,-0.111,-60.425,34.058,45.349
1.039,1.429,-0.193,-52.673,33.875,49.194
0.610,1.371,-0.409,-52.002,47.363,89.172
0.206,1.368,-0.437,-49.683,58.472,138.062
0.604,1.334,-0.535,-52.856,53.406,163.879
1.140,1.435,-0.251,-55.115,42.786,176.880
1.240,1.315,-0.079,-61.523,33.142,190.186
0.976,1.243,-0.075,-73.853,26.489,203.979
0.632,1.275,-0.290,-89.294,21.667,221.375
0.411,1.350,-0.433,-96.619,26.550,230.591
0.704,1.649,-0.200,-97.412,37.231,227.112
1.217,1.955,0.085,-106.873,39.246,228.027
1.093,1.907,-0.199,-90.149,44.006,229.736
0.690,1.180,-0.081,-76.477,72.571,205.933
0.875,1.170,0.057,-76.355,90.759,193.237
0.992,1.382,0.133,-66.895,91.980,182.251
1.128,1.366,0.078,-66.223,85.693,159.668
1.178,1.325,-0.011,-63.416,75.623,130.066
1.124,1.354,-0.117,-56.946,64.453,109.619
0.859,1.424,-0.183,-29.480,69.336,106.567
0.710,1.159,-0.248,-8.484,67.993,84.229
0.788,1.244,-0.170,-1.831,44.556,68.909
0.732,1.145,-0.216,4.456,27.649,53.650
0.538,1.025,-0.244,7.263,16.113,23.865
0.340,0.921,-0.241,18.188,7.629,-4.272
0.153,0.752,-0.263,35.400,0.427,-34.058
0.107,0.600,-0.319,53.101,-4.211,-66.528
0.072,0.440,-0.356,67.200,-7.202,-101.685
0.006,0.401,-0.406,82.581,-11.902,-135.071
-0.039,0.379,-0.433,98.328,-23.315,-166.992
-0.040,0.350,-0.403,111.206,-37.231,-202.759
-0.068,0.442,-0.424,119.995,-48.157,-238.708
-0.114,0.500,-0.455,126.160,-52.124,-269.287
-0.128,0.522,-0.467,128.540,-52.979,-298.828
-0.173,0.549,-0.463,130.554,-64.941,-336.365
-0.154,0.589,-0.427,137.085,-79.956,-385.803
-0.157,0.577,-0.411,133.972,-86.609,-431.885
-0.228,0.674,-0.375,127.563,-109.009,-475.952
-0.026,0.568,-0.346,125.916,-134.277,-501.648
0.425,0.747,-0.442,131.226,-124.023,-467.834
0.781,1.365,-0.664,159.180,-56.213,-378.357
0.109,1.453,-0.689,173.157,22.339,-288.086
0.025,1.471,-0.506,149.780,51.270,-216.980
-0.214,1.304,-0.337,150.269,26.184,-239.136
-0.660,1.516,-0.434,112.793,-26.733,-304.443
-0.985,1.903,-0.493,86.304,-90.881,-352.417
-1.160,1.983,-0.655,67.505,-135.681,-349.182
-1.706,2.145,-0.826,49.255,-157.349,-347.229
-2.027,2.320,-1.012,42.542,-158.447,-329.407
-2.114,2.426,-1.158,35.034,-141.235,-296.692
-2.162,2.504,-1.513,29.785,-124.146,-252.258
-2.247,2.361,-1.745,26.794,-108.215,-199.829
-2.446,1.977,-1.797,21.057,-89.600,-147.827
-2.536,1.517,-1.745,12.634,-75.684,-96.619
-2.449,1.058,-1.693,-4.211,-67.017,-51.636
-2.466,0.903,-1.541,-26.367,-52.063,-16.235
-2.598,0.983,-1.329,-36.926,-33.081,19.348
-2.633,0.965,-1.037,-38.818,-15.686,60.303
-2.059,0.758,-0.747,-47.607,-3.540,85.205
-1.973,0.876,-1.098,-76.233,-20.508,109.558
-2.373,0.775,-2.431,-129.211,-61.462,164.490
0.128,1.394,-0.983,-157.654,-17.029,184.509
1.756,2.456,0.472,-134.705,78.186,167.358
-1.327,2.816,-0.378,-132.202,70.862,193.176
0.126,2.545,-0.635,-131.287,21.545,263.794
-0.293,1.557,-2.448,-168.335,-8.789,278.625
-1.686,2.092,-1.659,-128.784,4.272,251.770
-0.989,0.910,0.996,-77.637,57.373,232.910
-0.501,-0.408,-0.196,-85.999,60.303,210.266
-0.163,0.988,-0.643,-94.849,50.049,153.931
-0.896,1.242,-0.872,-98.755,24.048,126.282
-0.601,1.486,-0.793,-95.154,6.165,105.713
0.568,1.471,-0.115,-79.041,4.333,89.233
0.081,1.471,-0.457,-72.144,-10.742,81.726
-0.371,1.484,-0.758,-61.157,-49.438,89.844
-0.029,1.284,-0.818,-35.400,-127.808,104.187
-0.643,1.056,-0.629,-38.025,-191.956,118.835
0.437,0.841,-0.275,-32.654,-247.253,121.216
0.235,1.308,-0.955,-50.842,-278.809,150.757
-0.125,1.841,-1.114,-38.025,-182.373,152.649
-0.088,2.097,-1.523,-37.903,35.583,128.540
-0.787,2.005,-2.250,-58.716,253.235,86.060
-0.266,2.705,-0.738,-89.050,395.874,103.210
0.097,2.216,-0.359,-49.377,442.322,106.873
0.877,1.985,0.359,-28.503,431.213,70.740
1.097,1.584,0.348,0.793,335.632,27.527
-0.256,1.769,-0.064,-8.911,220.581,19.897
-0.264,1.914,-0.490,-10.132,156.128,39.551
-0.465,1.538,-0.391,-21.912,135.010,72.021
0.869,1.663,0.041,-11.414,109.253,87.830
1.292,1.337,-0.005,-20.142,74.585,92.957
1.184,1.314,-0.071,-39.368,35.889,93.384
1.039,1.275,-0.226,-59.204,2.808,102.051
0.508,1.132,-0.502,-77.332,-10.010,120.483
0.334,1.427,-0.472,-73.975,11.963,133.423
0.788,1.522,-0.484,-68.176,37.903,144.653
1.031,1.653,-0.128,-62.134,56.702,154.053
1.089,1.427,-0.098,-68.970,54.016,172.485
0.667,1.371,-0.326,-87.769,43.945,205.261
0.347,1.205,-0.579,-105.957,28.442,176.453
0.559,1.607,-0.369,-111.328,14.832,158.325
1.015,1.831,-0.151,-113.647,18.127,138.000
1.288,2.087,-0.214,-108.215,27.283,164.429
0.687,1.563,-0.197,-86.792,59.448,198.364
0.957,1.443,-0.057,-67.627,96.985,200.806
0.993,1.331,0.191,-69.214,77.087,187.622
1.070,1.546,-0.009,-52.734,71.533,188.049
1.000,1.403,-0.144,-47.424,82.825,164.612
0.979,1.424,-0.310,-38.757,81.421,133.789
0.919,1.200,-0.286,-46.631,63.354,87.341
0.848,1.064,-0.283,-47.363,41.382,58.228
0.757,1.042,-0.297,-32.837,23.193,51.880
0.611,1.060,-0.299,-13.306,9.338,47.302
0.445,1.043,-0.321,9.705,-1.221,38.086
0.339,0.791,-0.281,29.968,-5.615,11.414
0.277,0.541,-0.241,43.274,-9.338,-21.729
0.223,0.414,-0.249,63.110,-13.611,-50.720
0.148,0.380,-0.310,88.196,-19.836,-79.224
0.077,0.334,-0.383,109.802,-30.029,-116.028
0.084,0.217,-0.369,117.920,-57.495,-155.945
0.153,0.139,-0.346,117.859,-93.750,-195.984
0.158,0.144,-0.309,125.488,-140.625,-249.817
0.181,0.223,-0.271,141.113,-186.340,-306.702
0.286,0.351,-0.304,146.912,-216.736,-323.242
0.313,0.566,-0.463,152.832,-207.458,-312.500
0.154,0.619,-0.583,162.964,-161.621,-309.082
0.001,0.644,-0.605,168.396,-105.042,-309.753
-0.046,0.813,-0.562,192.444,-43.823,-306.946
0.033,0.805,-0.622,203.918,17.639,-291.992
0.234,0.757,-0.573,197.266,64.087,-269.836
0.341,0.814,-0.363,202.332,74.158,-276.550
0.304,0.813,-0.401,189.941,54.199,-304.932
0.099,1.090,-0.401,164.978,26.672,-353.088
-0.055,1.144,-0.512,133.362,-4.211,-396.362
-0.255,1.510,-0.555,114.258,-30.151,-410.034
-0.408,1.826,-0.616,105.652,-48.096,-399.048
-0.546,1.949,-0.721,97.534,-58.167,-379.395
-0.833,2.051,-0.767,85.327,-66.040,-363.892
-1.211,2.286,-0.836,64.026,-79.163,-360.901
-1.664,2.612,-1.032,41.504,-87.097,-350.098
-2.278,2.906,-1.227,21.912,-85.754,-322.327
-2.709,3.001,-1.435,5.310,-84.229,-272.888
-2.958,2.755,-1.624,2.869,-84.106,-205.139
-2.953,2.142,-1.855,-4.822,-93.628,-127.991
-2.856,1.490,-1.987,-23.010,-107.544,-59.387
-2.682,1.104,-2.003,-48.706,-113.159,-7.568
-2.861,0.985,-1.734,-68.726,-99.976,32.776
-3.012,1.015,-1.464,-74.768,-76.111,72.571
-2.651,0.908,-1.245,-82.336,-52.429,113.037
-2.709,0.985,-1.441,-107.483,-50.293,156.372
-1.461,1.014,-1.799,-137.207,-49.500,195.374
1.430,1.678,0.673,-132.751,34.729,180.237
1.373,2.458,1.022,-125.122,101.379,191.101
-1.857,2.567,-0.468,-134.155,65.247,246.826
-0.231,1.907,-1.173,-155.762,15.686,264.709
-0.837,1.431,-3.253,-221.375,-31.860,264.404
-2.860,2.528,-2.004,-167.786,-11.536,232.178
0.064,0.980,1.251,-96.558,60.730,220.825
-0.305,-0.253,-0.187,-118.469,57.251,184.448
-0.201,1.029,-0.897,-105.835,33.691,128.418
-1.025,0.840,-1.114,-124.817,-1.343,105.896
-0.106,1.602,-0.793,-112.854,-20.081,82.520
0.353,1.636,-0.036,-84.961,-40.039,88.867
0.078,1.476,-0.352,-54.504,-77.576,86.304
0.052,1.432,-0.732,-17.822,-137.634,91.187
-0.196,1.551,-0.527,0.854,-207.581,159.973
-1.184,0.858,-1.080,-91.980,-287.109,272.583
-0.487,1.320,-0.509,-136.963,-311.279,313.293
0.787,0.668,-1.756,-75.500,-112.793,118.408
0.525,0.358,-2.261,-65.552,218.140,-130.249
-0.445,2.094,-1.440,-52.795,391.541,-181.580
0.591,3.069,-0.864,9.888,415.527,-146.484
0.160,3.162,-0.028,16.968,410.767,-62.256
0.537,2.813,0.100,35.645,345.703,36.255
0.505,1.941,0.502,23.682,242.615,82.336
0.513,1.404,0.165,-10.803,157.593,74.402
-0.193,1.681,-0.322,-29.846,121.460,62.683
0.279,1.475,-0.369,-26.184,99.487,54.810
-0.047,1.461,-0.376,-38.269,85.876,66.467
0.819,1.494,-0.036,-23.437,86.060,62.195
1.139,1.172,0.017,-28.931,73.669,61.523
1.163,1.234,-0.134,-33.813,62.317,81.665
0.966,1.227,-0.287,-35.156,55.603,102.478
0.521,1.081,-0.448,-47.058,52.368,126.221
0.232,1.215,-0.416,-59.021,51.514,146.851
0.776,1.350,-0.405,-60.730,46.082,155.457
1.114,1.325,-0.153,-62.195,46.570,161.072
1.070,1.125,-0.050,-68.054,44.128,173.645
0.554,0.960,-0.247,-87.769,44.250,190.796
0.126,1.141,-0.572,-102.417,53.772,199.219
0.408,1.659,-0.379,-115.845,61.462,194.946
0.864,2.196,-0.327,-117.432,59.937,187.134
0.777,1.688,-0.250,-96.252,68.665,182.495
0.684,1.038,-0.059,-92.102,93.994,187.744
0.755,1.332,0.057,-84.229,116.577,184.631
0.930,1.536,0.078,-74.585,119.751,179.199
0.979,1.422,0.057,-76.782,108.521,163.452

0.705,1.231,0.022,-11.658,151.123,80.383
0.563,1.228,-0.257,-52.795,67.322,80.078
0.756,1.430,-0.208,-56.030,45.410,87.585
0.752,1.262,-0.320,-55.115,36.743,105.530
0.833,1.214,-0.298,-60.059,31.311,131.287
0.990,1.263,-0.307,-59.937,24.536,149.658
0.923,1.285,-0.081,-59.692,27.588,163.574
0.932,1.203,0.028,-60.974,28.198,179.138
0.895,1.081,0.005,-71.228,25.024,193.542
0.674,1.089,-0.209,-93.750,17.944,209.839
0.383,1.328,-0.366,-106.628,11.169,218.445
0.540,1.635,-0.207,-114.624,8.911,212.280
0.952,1.974,0.104,-130.981,1.587,211.182
0.899,1.896,-0.076,-119.690,-1.526,225.220
0.642,1.244,-0.022,-102.905,31.799,211.243
0.777,1.101,0.106,-98.389,73.486,192.810
0.793,1.412,0.120,-78.186,100.891,182.678
0.777,1.484,0.094,-57.800,116.882,169.312
0.857,1.497,-0.005,-44.800,127.747,155.029
0.917,1.356,-0.100,-33.569,108.215,136.414
0.895,1.323,-0.146,-22.095,78.674,125.488
0.840,1.152,-0.197,-20.630,76.660,108.215
0.634,1.151,-0.237,-22.522,70.679,79.346
0.523,1.113,-0.256,-22.888,55.237,37.109
0.514,1.218,-0.260,-19.531,37.537,2.869
0.484,1.136,-0.282,-0.427,22.034,-12.329
0.374,0.946,-0.284,28.015,9.705,-24.841
0.298,0.704,-0.284,53.040,-2.136,-43.091
0.229,0.521,-0.266,64.331,-13.489,-64.758
0.106,0.415,-0.287,73.364,-25.452,-96.436
0.031,0.383,-0.300,80.078,-36.316,-136.353
-0.039,0.478,-0.378,89.966,-45.105,-177.124
-0.148,0.370,-0.415,103.333,-47.363,-217.468
-0.018,0.389,-0.439,112.854,-48.584,-251.221
0.041,0.439,-0.476,120.483,-54.688,-276.123
0.065,0.466,-0.509,126.526,-61.401,-295.593
0.023,0.518,-0.524,130.859,-60.669,-315.918
-0.034,0.557,-0.531,133.728,-55.420,-339.600
-0.004,0.581,-0.487,132.996,-53.528,-368.347
0.062,0.656,-0.421,133.057,-66.101,-400.696
0.081,0.714,-0.382,132.751,-83.374,-442.444
0.020,0.720,-0.343,122.192,-102.295,-482.483
0.056,0.809,-0.322,109.802,-122.559,-504.578
0.635,0.968,-0.378,99.792,-123.901,-464.966
0.498,1.885,-0.666,141.846,-77.332,-388.611
-0.216,1.760,-0.665,154.358,-33.997,-325.867
-0.573,1.907,-0.636,143.188,-28.198,-287.354
-0.964,1.805,-0.637,125.183,-42.053,-289.490
-1.428,1.812,-0.734,99.976,-64.453,-310.791
-1.913,2.069,-0.839,77.209,-88.440,-341.125
-2.212,2.464,-1.008,57.800,-103.333,-347.961
-2.465,2.802,-1.130,44.617,-101.440,-320.068
-2.668,3.011,-1.360,35.950,-102.722,-255.981
-2.678,2.691,-1.688,33.630,-116.455,-169.189
-2.676,1.953,-1.872,23.376,-127.502,-91.980
-2.772,1.427,-1.960,4.944,-126.709,-38.513
-2.703,1.060,-1.912,-18.311,-114.014,0.000
-2.563,0.950,-1.848,-45.837,-101.807,34.912
-3.129,1.225,-1.212,-52.734,-75.500,76.477
-2.618,0.984,-1.177,-59.448,-58.167,129.395
-1.780,0.679,-1.000,-65.979,-45.715,154.358
-0.797,0.515,-2.238,-103.088,-49.805,156.311
2.518,0.853,-0.678,-124.268,22.766,119.629
2.099,1.581,0.245,-149.780,129.028,117.371
-2.489,3.334,-0.261,-180.847,104.370,170.410
-0.806,3.623,-0.882,-143.555,48.767,242.554
0.447,2.046,-1.127,-135.498,55.481,262.756
-0.567,1.565,-1.159,-134.399,54.993,262.512
-1.259,0.692,-1.636,-128.540,36.133,252.197
-0.610,0.373,0.307,-99.609,54.016,208.984
-0.603,0.092,-0.520,-98.755,21.912,177.673
0.596,0.928,-0.440,-99.731,-20.508,129.822
-0.133,1.841,-0.885,-107.056,-55.054,98.633
-0.224,2.296,-0.466,-83.069,-95.642,114.502
-1.158,1.542,-0.541,-86.060,-157.959,160.217
0.037,1.195,0.122,-93.262,-209.167,209.167
0.385,0.907,-0.706,-95.825,-244.446,218.628
-0.207,1.020,-0.922,-73.547,-205.811,170.410
-0.344,1.326,-1.351,-49.072,-66.284,131.592
-0.519,1.521,-2.496,-55.908,132.751,110.046
-0.458,1.694,-1.510,-80.811,299.133,118.774
-0.056,1.373,-0.917,-88.196,356.812,108.948
0.548,1.984,0.023,-76.050,366.272,41.321
0.774,2.051,-0.083,-30.579,335.571,-28.076
-0.078,2.495,-0.180,3.845,302.917,-62.988
0.102,2.786,-0.130,10.620,240.906,-31.128
-0.767,2.363,-0.181,-8.667,177.063,29.541
0.427,2.048,0.126,0.366,154.236,61.768
0.431,1.505,0.050,-5.432,120.667,72.266
0.419,1.266,-0.142,-18.372,95.642,79.590
0.729,1.292,-0.002,-28.870,61.523,80.200
0.474,1.228,-0.393,-46.875,25.940,87.341
0.739,1.438,-0.293,-41.260,16.235,91.980
0.748,1.264,-0.416,-40.100,20.142,104.614
0.668,1.172,-0.386,-36.560,32.349,127.319
0.553,0.945,-0.436,-49.561,31.372,144.287
0.561,1.061,-0.427,-68.176,22.766,149.536
0.788,1.137,-0.316,-80.688,12.390,153.015
0.609,1.333,-0.268,-84.534,13.062,175.598
0.376,1.245,-0.459,-101.929,16.174,146.545
0.094,1.650,-0.617,-112.305,16.663,150.452
0.442,1.938,-0.532,-112.183,31.067,175.781
1.104,1.858,-0.312,-125.793,49.255,187.927
1.113,2.061,-0.129,-112.915,73.364,203.308
0.881,1.692,-0.026,-106.689,78.674,212.158
0.902,1.630,0.000,-98.389,104.614,214.233
1.034,1.551,-0.044,-89.050,140.564,189.819
1.115,1.631,0.005,-80.261,145.325,157.227
1.234,1.645,-0.005,-75.928,133.240,139.893
1.337,1.784,-0.007,-75.012,96.008,112.366
1.213,1.704,-0.195,-68.726,61.096,95.398
1.021,1.537,-0.230,-40.955,43.396,111.938
0.827,1.317,-0.164,-13.245,32.532,112.000
0.803,1.214,-0.124,-7.080,10.742,91.980
0.785,1.125,-0.171,-1.892,-8.789,64.697
0.576,1.063,-0.274,8.240,-15.503,42.480
0.272,1.013,-0.320,29.785,-7.568,27.893
0.040,0.728,-0.306,62.988,8.667,9.277
-0.046,0.362,-0.250,98.450,3.601,-24.841
0.021,0.123,-0.275,118.286,-12.756,-68.787
0.118,0.067,-0.288,123.840,-34.363,-119.934
0.145,0.039,-0.307,123.474,-50.964,-179.138
0.159,0.064,-0.324,117.615,-70.374,-229.858
0.079,0.300,-0.375,125.305,-100.525,-279.297
-0.010,0.340,-0.354,155.640,-124.023,-335.083
0.171,0.262,-0.292,164.429,-151.184,-375.305
0.298,0.513,-0.245,169.128,-183.655,-391.174
0.323,0.616,-0.279,176.331,-202.515,-397.461
0.195,0.726,-0.397,190.613,-188.843,-401.611
0.206,0.876,-0.597,194.336,-127.502,-378.723
0.122,1.270,-0.664,229.492,-29.846,-345.947
-0.071,1.283,-0.730,243.591,65.674,-307.312
0.053,1.086,-0.559,227.112,123.718,-269.653
0.173,0.981,-0.303,223.206,125.366,-290.466
0.118,0.814,-0.439,188.538,85.510,-330.505
-0.273,1.510,-0.427,145.203,30.823,-389.404
-0.504,1.776,-0.516,114.075,-26.184,-421.265
-0.539,1.881,-0.560,89.294,-75.439,-416.809
-0.686,1.963,-0.682,66.528,-115.173,-406.128
-1.161,2.231,-0.855,50.293,-139.282,-388.672
-1.634,2.541,-1.102,36.438,-141.663,-358.765
-2.437,3.049,-1.261,19.348,-125.488,-335.205
-2.935,3.246,-1.441,8.545,-101.990,-289.978
-3.146,3.003,-1.722,12.207,-83.740,-217.896
-3.107,2.270,-2.052,11.841,-78.918,-135.986
-3.001,1.440,-2.233,-3.540,-76.477,-67.505
-2.797,0.961,-2.152,-28.442,-64.270,-22.705
-2.647,0.824,-1.838,-48.462,-48.889,13.000
-2.640,0.961,-1.554,-69.641,-32.959,54.260
-2.894,1.274,-1.319,-76.172,-16.602,102.417
-2.625,1.244,-1.041,-76.355,-6.409,149.597
-1.600,0.868,-0.941,-88.379,8.240,170.715
-1.210,0.907,-1.157,-107.178,20.691,177.002
2.096,1.092,-0.285,-96.069,32.837,155.762
3.202,0.935,-0.162,-142.212,88.379,146.362
-2.201,3.257,-0.533,-175.537,86.426,200.195
-0.857,3.262,-0.386,-183.044,-2.747,266.846
0.434,2.186,-1.902,-212.830,-50.476,263.550
-1.360,2.211,-0.660,-161.560,-21.362,249.390
-1.517,0.385,-1.140,-99.792,9.216,229.126
-0.902,-0.104,-0.332,-68.848,22.339,221.130
-0.059,0.733,-0.212,-77.759,-6.470,174.744
0.497,1.138,-0.203,-66.162,-77.148,139.099
-0.447,1.827,-0.635,-96.558,-147.461,144.165
-0.659,2.224,-0.663,-93.567,-171.936,191.833
-1.345,1.233,-0.823,-165.039,-168.091,219.910
0.156,0.305,-0.201,-138.367,-143.433,103.271
-0.194,0.557,-1.000,-92.407,-104.126,21.545
0.014,1.780,-1.429,-66.345,14.648,52.307
-0.257,1.349,-1.487,-71.106,179.749,52.490
-0.878,0.990,-2.014,-77.271,276.001,8.606
0.350,1.952,-0.754,-29.175,303.223,0.732
-0.093,1.746,-0.614,-17.578,278.198,23.560
0.689,2.265,0.205,7.080,232.666,22.766
0.673,2.221,-0.212,-14.893,157.043,26.062
-0.467,2.847,-0.082,-24.170,115.662,40.588
0.119,2.428,-0.847,-29.114,78.857,64.575
-0.347,2.449,-0.152,-26.489,72.021,72.266
0.906,1.846,-0.014,-12.512,78.796,62.378
0.495,1.710,-0.129,-9.460,95.703,58.411
0.332,1.457,-0.308,-7.202,115.601,69.153
0.723,1.371,-0.282,-9.094,123.352,79.590
0.373,1.443,-0.348,-16.052,121.643,92.529
0.928,1.455,-0.337,-15.381,106.140,100.769
0.953,1.372,-0.277,-20.630,82.031,112.183
0.811,1.166,-0.250,-37.170,56.824,132.202
0.839,1.194,-0.417,-59.387,28.320,150.330
0.963,1.419,-0.350,-72.693,13.794,160.461
0.978,1.531,-0.261,-84.351,10.437,169.373
0.679,1.658,-0.356,-92.529,18.433,184.631
0.469,1.715,-0.556,-104.919,27.649,206.543
0.513,1.831,-0.600,-110.352,33.508,228.210
0.914,1.866,-0.482,-112.732,41.565,235.535
1.122,1.861,-0.234,-116.394,54.993,237.610
0.973,1.979,-0.145,-107.178,69.214,236.816
0.833,1.701,0.030,-98.328,89.111,219.543
1.089,1.560,0.023,-93.262,99.670,205.505
1.084,1.508,0.097,-82.031,106.262,190.186
1.099,1.338,0.093,-74.524,110.229,168.396
1.105,1.386,0.005,-62.866,104.309,146.240
1.070,1.426,-0.077,-46.082,90.271,126.648
0.900,1.305,-0.151,-35.278,78.552,108.582
0.793,1.066,-0.157,-19.287,70.251,88.806
0.806,1.004,-0.112,-8.545,54.871,69.031
0.749,1.005,-0.176,1.648,32.410,47.546
0.622,0.964,-0.257,10.315,12.512,24.109
0.340,0.804,-0.320,24.109,-2.197,0.977
0.199,0.532,-0.266,41.809,-10.376,-26.672
0.230,0.244,-0.226,58.716,-19.836,-56.580
0.263,0.089,-0.206,73.669,-34.546,-88.562
0.181,0.089,-0.267,85.693,-49.072,-123.657
0.043,0.193,-0.344,104.431,-54.932,-158.081
-0.040,0.183,-0.365,124.268,-59.265,-200.073
0.029,0.208,-0.395,135.193,-65.796,-233.643
0.104,0.231,-0.428,141.541,-71.777,-263.000
0.065,0.234,-0.482,142.883,-74.951,-292.297
0.055,0.329,-0.547,146.545,-73.669,-318.481
0.052,0.443,-0.523,152.222,-69.885,-342.407
0.032,0.526,-0.491,155.823,-64.392,-370.117
-0.035,0.611,-0.417,158.020,-66.895,-424.133
-0.244,0.645,-0.284,152.527,-100.159,-517.639
-0.393,0.473,-0.145,122.559,-151.733,-594.666
0.334,0.440,0.027,96.497,-223.145,-580.383
1.745,1.107,0.017,114.380,-247.986,-489.380
1.244,2.316,-0.780,179.016,-154.968,-365.173
0.168,1.985,-0.890,188.049,-26.611,-245.361
-0.457,2.064,-0.735,182.434,24.597,-187.988
-0.945,1.708,-0.523,183.350,-8.362,-208.618
-1.256,1.737,-0.629,143.921,-87.341,-287.781
-1.408,2.124,-0.820,93.140,-174.377,-354.431
-1.672,2.491,-1.153,66.223,-227.356,-369.934
-2.086,2.867,-1.447,47.729,-249.634,-364.380
-2.466,3.204,-1.790,42.908,-232.971,-322.632
-2.819,3.165,-2.284,48.706,-190.918,-240.784
-2.935,2.457,-2.709,53.589,-140.381,-148.926
-2.802,1.548,-2.844,38.391,-97.412,-78.125
-2.728,0.896,-2.728,4.028,-62.134,-35.828
-2.769,0.836,-2.275,-28.137,-27.954,-7.263

-0.611,1.615,-1.381,-175.415,-21.362,234.314
-0.396,1.477,-0.779,-153.564,6.470,230.164
-0.187,0.587,-1.439,-147.156,-9.827,215.210
-0.821,0.646,-1.662,-156.738,-2.686,180.237
-0.771,0.531,-0.042,-107.117,25.696,127.747
-0.670,1.164,-0.181,-88.623,-1.526,136.597
0.563,1.901,-0.245,-61.584,-31.372,145.325
-0.326,1.882,-0.381,-60.364,-69.214,177.673
-0.876,1.543,-0.968,-91.003,-144.409,246.399
-0.729,0.885,-0.421,-192.505,-233.459,316.956
0.291,0.587,0.070,-184.509,-287.537,233.398
0.292,-0.020,-1.220,-82.825,-157.837,-16.785
-0.231,1.249,-2.582,-61.035,103.394,-93.567
-0.312,2.066,-1.507,-57.068,279.297,-12.634
-0.623,1.423,-1.009,-35.217,323.059,25.269
0.578,1.568,-0.757,2.502,301.941,22.888
0.228,1.494,-0.378,10.376,264.526,17.212
0.626,1.844,-0.209,30.640,209.045,7.080
0.335,2.132,-0.579,0.854,144.958,14.160
-0.206,2.773,0.098,-11.719,110.840,26.550
-0.331,2.377,-0.665,-28.442,69.824,49.683
0.048,2.314,0.045,-22.278,71.289,60.608
0.563,1.594,-0.050,-15.442,85.266,57.922
0.226,1.701,-0.209,-12.146,109.436,59.326
0.156,1.764,-0.356,-10.193,122.925,68.420
0.684,1.640,-0.430,-19.531,117.432,82.886
0.622,1.615,-0.378,-29.358,109.497,93.262
0.977,1.390,-0.333,-36.316,101.379,104.126
1.095,1.225,-0.233,-45.410,93.506,120.178
1.257,1.163,-0.308,-61.829,76.050,135.254
1.096,1.428,-0.340,-75.378,54.626,148.804
1.097,1.638,-0.258,-78.003,38.757,164.734
1.113,1.490,-0.112,-86.731,31.677,182.922
1.101,1.355,-0.192,-102.905,30.273,187.378
0.811,1.217,-0.300,-118.652,40.039,195.862
0.325,1.395,-0.446,-119.995,65.186,194.275
0.603,1.793,-0.173,-106.506,91.003,186.768
0.964,1.914,0.027,-99.121,101.563,189.819
1.123,1.810,-0.052,-84.473,107.788,188.477
0.997,1.132,0.185,-80.688,126.038,169.983
0.985,1.330,0.135,-75.562,123.718,171.753
0.986,1.283,0.163,-63.538,121.948,161.499
1.099,1.292,0.127,-52.124,117.859,139.587
1.212,1.376,0.032,-36.743,99.915,116.577
1.175,1.334,-0.063,-24.963,72.876,97.290
1.241,1.235,-0.132,-20.264,43.335,74.463
0.885,1.047,-0.206,-11.230,26.794,61.340
0.809,1.187,-0.280,4.517,14.526,57.983
0.558,1.188,-0.318,21.729,12.878,39.490
0.415,1.026,-0.187,28.503,-15.198,18.127
0.404,0.847,-0.267,41.443,-34.119,-3.174
0.337,0.668,-0.326,53.894,-28.931,-27.771
0.226,0.482,-0.344,61.157,-29.602,-58.289
0.098,0.410,-0.401,72.693,-32.349,-96.802
-0.019,0.340,-0.463,89.294,-32.715,-138.123
-0.025,0.331,-0.487,103.027,-38.025,-175.903
-0.016,0.376,-0.498,112.915,-58.777,-206.116
0.054,0.348,-0.530,119.751,-76.111,-235.657
0.073,0.394,-0.539,128.235,-85.022,-262.878
0.033,0.416,-0.556,134.460,-91.309,-292.908
-0.036,0.441,-0.547,138.672,-102.478,-339.050
-0.028,0.483,-0.462,148.376,-135.071,-405.945
-0.077,0.537,-0.304,141.052,-170.776,-478.760
0.001,0.448,-0.016,124.451,-248.779,-534.546
0.544,0.536,0.021,118.469,-312.012,-533.020
1.431,1.329,-0.477,140.991,-256.592,-428.589
0.657,2.347,-1.047,226.379,-66.528,-300.720
0.003,1.735,-0.971,217.834,99.609,-180.725
-0.086,1.497,-0.639,203.979,165.771,-145.081
-0.582,1.168,-0.370,196.472,147.095,-234.314
-0.927,1.491,-0.343,159.302,75.684,-346.619
-0.731,2.100,-0.469,135.864,-2.808,-370.178
-0.811,2.050,-0.497,86.243,-65.002,-401.428
-1.069,2.529,-0.652,62.500,-112.427,-404.236
-1.656,2.793,-0.841,41.931,-147.095,-377.319
-2.266,3.062,-1.086,29.236,-149.597,-331.482
-2.721,3.100,-1.315,25.452,-141.785,-263.916
-2.808,2.620,-1.646,24.048,-141.357,-184.875
-2.766,1.936,-2.021,14.954,-145.569,-115.906
-2.664,1.221,-2.243,-4.700,-142.395,-57.617
-2.552,0.813,-2.344,-31.860,-130.432,-14.587
-2.706,0.836,-1.963,-54.260,-100.708,19.043
-2.917,1.117,-1.728,-61.035,-65.613,62.866
-2.716,1.112,-1.555,-61.646,-41.687,107.483
-2.121,0.899,-1.275,-72.449,-23.132,142.090
-1.464,0.837,-1.786,-93.811,-25.146,163.147
1.120,0.883,-1.810,-123.840,-14.771,154.968
3.508,1.479,0.913,-127.563,92.834,130.188
-0.499,2.526,0.148,-155.273,117.798,188.171
-2.454,3.040,-0.003,-163.391,52.185,261.902
-0.076,2.522,-1.249,-152.100,3.296,263.000
0.548,1.131,-0.973,-164.062,6.958,248.596
-0.543,1.011,-1.415,-164.246,-14.771,247.314
-1.977,0.294,-2.533,-163.391,9.094,187.073
-1.107,1.440,0.426,-105.713,50.720,151.367
-0.644,1.009,-0.092,-79.346,7.446,184.265
0.709,1.337,-0.374,-85.510,-33.752,164.124
-0.185,1.755,-0.597,-101.501,-61.829,145.325
-0.421,2.102,-0.487,-102.600,-127.625,188.599
-1.022,1.124,-0.474,-150.757,-197.021,238.403
0.064,0.870,-0.222,-150.513,-217.834,235.596
0.441,0.497,-1.017,-118.591,-186.646,154.480
-0.015,0.999,-1.478,-76.233,-51.453,64.941
-0.103,1.524,-1.455,-54.504,137.573,46.082
-0.992,1.342,-2.221,-61.035,271.057,64.026
0.258,1.497,-0.811,-51.636,319.702,62.805
0.099,1.248,-0.709,-55.542,303.894,44.739
0.605,1.857,-0.136,-15.686,284.973,-4.578
0.788,1.991,-0.279,17.639,239.624,-49.500
-0.286,2.539,-0.310,2.075,212.891,-57.251
-0.098,2.812,-0.502,-3.784,177.734,-15.015
-0.722,2.351,-0.218,-18.616,149.597,46.753
0.401,1.938,0.138,-3.479,142.944,66.711
0.409,1.561,-0.020,-13.611,121.948,64.514
0.333,1.390,-0.247,-23.804,102.478,69.336
0.669,1.437,-0.013,-39.612,74.036,74.219
0.297,1.313,-0.446,-51.331,58.899,82.397
0.627,1.505,-0.252,-46.814,62.256,90.149
0.786,1.362,-0.326,-43.884,72.021,94.299
1.105,1.368,-0.359,-40.039,67.444,107.666
0.853,1.111,-0.115,-54.749,59.265,126.953
0.577,1.214,-0.382,-69.336,43.701,142.395
0.927,1.308,-0.276,-73.853,24.841,157.349
0.835,1.400,-0.275,-79.651,19.836,166.199
0.925,1.256,-0.210,-92.224,19.592,129.578
0.563,1.089,-0.420,-112.366,28.931,153.320
0.259,1.448,-0.572,-114.441,55.908,175.720
0.707,1.851,-0.346,-102.722,82.336,172.913
1.198,1.997,-0.037,-106.140,84.900,172.363
1.167,1.650,-0.219,-98.328,89.172,181.396
0.725,1.384,-0.131,-73.181,122.559,189.514
1.137,1.278,0.148,-79.224,112.488,169.373
1.153,1.509,0.096,-67.261,109.741,161.072
1.120,1.582,-0.025,-45.166,125.671,162.292
1.121,1.448,-0.028,-41.870,118.774,139.832
1.124,1.441,-0.112,-37.598,91.675,118.774
0.994,1.243,-0.126,-28.198,64.880,99.182
0.891,1.097,-0.174,-26.306,45.532,73.486
0.838,1.122,-0.222,-27.161,21.851,40.710
0.762,1.093,-0.272,-24.902,3.174,8.972
0.515,1.053,-0.325,0.977,-2.380,-1.892
0.347,1.009,-0.340,42.480,-1.282,-5.005
0.314,0.850,-0.344,81.177,-3.296,-23.193
0.235,0.658,-0.343,110.657,-23.132,-46.631
0.239,0.419,-0.365,122.986,-49.438,-84.351
0.154,0.330,-0.408,120.117,-66.650,-139.282
0.126,0.249,-0.444,115.234,-93.140,-192.017
0.169,0.293,-0.433,127.563,-124.756,-250.427
0.142,0.295,-0.420,150.024,-160.706,-310.608
0.201,0.372,-0.366,164.062,-196.106,-349.915
0.324,0.504,-0.352,170.532,-219.788,-364.929
0.305,0.662,-0.468,177.429,-209.778,-364.380
0.137,0.859,-0.604,191.711,-149.475,-346.497
-0.037,1.111,-0.727,222.656,-46.692,-316.772
-0.241,1.137,-0.771,244.812,60.181,-287.537
-0.014,0.991,-0.630,231.201,131.836,-250.427
0.239,0.898,-0.336,222.778,144.348,-256.287
0.313,0.777,-0.301,204.468,113.647,-303.589
-0.078,1.141,-0.408,165.588,70.190,-378.479
-0.262,1.299,-0.521,132.324,33.691,-416.626
-0.387,1.752,-0.521,111.389,7.019,-426.025
-0.492,1.870,-0.569,89.661,-13.306,-427.917
-0.496,2.023,-0.614,70.801,-36.804,-413.147
-0.608,2.171,-0.647,47.546,-65.552,-391.113
-0.993,2.486,-0.750,22.095,-91.675,-365.479
-1.708,2.783,-0.835,-1.831,-104.919,-338.318
-2.512,3.070,-0.918,-12.268,-106.995,-304.382
-3.093,2.868,-0.956,-11.353,-98.511,-252.563
-3.261,2.454,-1.347,-4.883,-101.868,-176.636
-2.905,1.822,-1.794,-4.150,-111.511,-99.243
-2.393,1.194,-1.934,-19.348,-120.239,-41.565
-2.249,0.809,-1.906,-42.480,-121.277,0.305
-2.505,0.887,-1.553,-64.453,-111.633,39.978
-2.788,1.134,-1.233,-69.397,-91.125,86.975
-2.745,1.125,-1.076,-67.078,-66.711,128.845
-1.963,0.751,-1.252,-81.421,-45.044,152.588
-1.901,0.882,-1.834,-128.662,-44.922,174.927
0.468,1.215,-1.480,-157.104,-32.654,177.917
2.041,2.030,0.805,-170.471,60.730,179.321
-2.138,3.553,0.190,-145.813,76.477,241.882
-0.686,2.627,-0.642,-153.198,23.315,278.442
0.229,1.525,-1.449,-173.767,3.723,269.897
-0.725,1.351,-1.335,-179.138,12.451,259.521
-1.671,0.715,-1.531,-159.363,17.700,221.252
-1.259,0.901,0.110,-116.028,47.058,185.852
-0.800,0.765,-0.379,-75.562,29.053,183.594
0.491,1.097,-0.201,-79.956,-0.671,149.658
0.126,1.512,-0.594,-86.670,-32.349,107.483
-0.283,2.018,-0.311,-72.266,-69.946,107.788
-1.169,1.481,-0.859,-67.322,-119.019,148.682
-0.473,1.297,-0.302,-86.975,-148.132,197.144
0.458,0.612,-0.720,-86.060,-137.756,165.527
0.028,0.591,-0.802,-87.341,-90.149,71.716
-0.275,1.286,-1.219,-81.909,-61.890,63.843
-0.113,1.509,-1.343,-72.998,-13.916,65.063
-0.407,1.081,-1.120,-65.735,95.276,9.094
-0.345,1.412,-1.558,-65.613,199.341,-8.057
-0.009,2.034,-0.641,-44.373,270.508,-6.958
0.712,2.249,-0.334,-4.150,275.391,0.793
0.055,2.494,-0.600,-9.033,233.276,25.879
0.389,2.899,0.225,0.244,188.904,45.227
-0.210,2.220,-0.556,-24.597,132.080,66.528
0.267,2.207,0.264,-1.709,123.962,63.782
0.709,1.453,-0.068,-1.526,110.596,57.556
0.261,1.640,0.009,-0.488,106.201,57.190
0.327,1.385,-0.065,-6.592,99.365,64.819
0.313,1.173,-0.459,-17.334,89.294,69.641
0.191,1.305,-0.235,-19.592,90.332,81.055
0.646,1.348,-0.356,-13.733,85.754,85.632
0.836,1.405,-0.310,-7.629,76.416,92.651
0.953,1.280,-0.349,-8.789,54.993,105.774
0.448,1.115,-0.338,-23.621,29.907,129.395
0.729,1.123,-0.361,-36.377,2.563,151.489
0.719,1.108,-0.114,-54.565,-18.250,169.556
0.536,1.146,-0.265,-69.397,-26.184,186.768
0.345,1.233,-0.309,-87.219,-22.705,202.820
0.072,1.603,-0.588,-103.882,-17.578,219.238
0.286,1.882,-0.584,-111.084,-3.967,228.699
0.791,2.091,-0.449,-116.089,17.334,231.262
1.040,2.098,-0.298,-116.821,43.091,237.793
1.011,1.971,-0.232,-109.924,70.313,245.178
0.916,1.839,-0.195,-100.464,100.037,242.981
1.032,1.645,-0.103,-93.201,128.235,225.769
1.181,1.680,-0.072,-80.200,137.268,215.454
1.117,1.506,-0.132,-71.777,136.230,197.571
1.174,1.453,-0.172,-66.406,133.240,171.204
1.182,1.549,-0.251,-52.490,123.657,153.015
1.063,1.401,-0.239,-36.255,115.479,137.085
1.006,1.239,-0.205,-18.616,109.375,113.586
1.000,1.120,-0.035,-19.287,74.402,90.210
0.988,1.110,-0.177,-18.860,54.077,72.571
0.756,1.056,-0.235,-18.677,45.532,36.133
0.435,0.892,-0.297,-12.085,33.875,4.944
0.213,0.732,-0.267,5.066,26.611,-21.545
0.213,0.415,-0.135,30.212,9.644,-52.307
0.257,0.197,-0.166,48.340,-12.146,-84.229
0.262,0.138,-0.223,57.922,-28.931,-120.789
0.125,0.215,-0.272,67.078,-42.664,-157.593

0.172,1.222,-0.473,-67.505,-43.457,114.807
0.360,1.453,-0.508,-62.439,-48.828,141.724
1.111,1.270,-0.381,-61.951,-45.349,161.743
1.159,1.355,-0.193,-58.716,-26.978,180.908
0.914,1.236,-0.147,-62.439,-7.690,197.388
0.409,1.218,-0.493,-84.106,1.343,218.445
0.109,1.444,-0.729,-98.267,12.756,230.591
0.472,1.689,-0.523,-106.812,32.104,223.083
0.898,1.815,-0.279,-116.211,52.063,204.590
0.997,1.853,-0.187,-117.310,73.669,192.261
0.828,1.750,-0.075,-112.366,97.473,192.566
0.857,1.651,-0.104,-102.966,121.460,185.669
0.989,1.663,-0.066,-78.674,146.179,190.674
0.983,1.524,-0.077,-57.861,161.133,195.251
0.978,1.539,-0.148,-47.363,156.311,180.542
1.092,1.578,-0.161,-56.946,107.361,169.617
1.145,1.664,-0.382,-51.147,80.750,161.621
0.909,1.558,-0.486,-55.786,65.735,136.597
0.767,1.448,-0.522,-67.017,55.603,99.792
0.649,1.587,-0.457,-71.960,34.729,60.181
0.509,1.385,-0.466,-61.707,-1.404,35.522
0.358,1.173,-0.484,-36.499,-17.456,21.667
0.163,0.946,-0.453,9.399,-12.939,16.357
0.049,0.682,-0.395,48.218,-12.573,-0.793
-0.106,0.347,-0.336,72.937,-19.531,-20.874
-0.251,0.089,-0.315,89.600,-24.902,-56.030
-0.292,-0.064,-0.320,100.464,-29.358,-104.309
-0.195,-0.183,-0.283,107.056,-35.645,-153.809
-0.121,-0.133,-0.372,109.741,-35.278,-200.745
-0.184,-0.034,-0.395,120.483,-34.424,-239.380
-0.076,-0.118,-0.341,126.038,-43.640,-270.996
0.198,-0.051,-0.348,126.038,-67.383,-299.927
0.212,0.135,-0.300,131.165,-95.032,-329.285
0.143,0.254,-0.323,137.024,-117.798,-359.680
0.052,0.381,-0.339,138.489,-134.460,-389.709
0.043,0.402,-0.338,131.226,-141.479,-426.208
0.136,0.403,-0.359,120.972,-139.709,-455.017
0.376,0.588,-0.429,122.864,-126.953,-436.401
0.554,1.001,-0.479,159.790,-99.609,-373.962
0.203,1.232,-0.595,209.595,-45.105,-324.768
0.051,0.993,-0.646,208.923,1.892,-270.203
-0.150,0.887,-0.521,192.932,17.395,-263.977
-0.329,0.775,-0.604,161.926,7.996,-301.514
-0.452,1.003,-0.586,130.188,-15.503,-348.450
-0.679,1.447,-0.590,111.877,-49.988,-385.864
-0.854,1.599,-0.637,95.215,-82.275,-394.409
-1.111,1.840,-0.729,80.261,-106.018,-384.033
-1.553,2.094,-0.891,68.542,-117.859,-368.530
-2.036,2.393,-1.133,52.124,-114.563,-349.548
-2.359,2.762,-1.268,38.635,-102.112,-320.068
-2.612,2.964,-1.429,26.733,-86.731,-273.376
-2.780,3.007,-1.647,24.841,-78.003,-209.839
-2.875,2.440,-1.821,22.583,-79.102,-136.780
-2.729,1.742,-1.952,7.324,-88.684,-71.777
-2.542,1.311,-1.899,-19.165,-94.910,-24.109
-2.596,1.179,-1.813,-42.969,-91.187,17.334
-2.759,1.111,-1.505,-56.580,-80.688,65.552
-2.310,0.896,-1.274,-65.735,-72.327,102.661
-2.236,0.713,-1.905,-89.417,-68.481,132.874
0.205,0.795,-2.412,-114.685,-36.804,115.540
3.966,1.480,0.842,-111.450,96.985,64.697
0.267,3.529,0.651,-135.437,159.912,170.959
-3.522,3.482,-0.024,-141.663,87.952,288.757
0.495,2.436,-1.048,-138.733,32.104,276.001
0.920,0.859,-1.559,-146.851,32.776,269.531
-1.673,1.070,-1.697,-161.316,32.288,237.061
-1.348,0.847,-0.482,-113.281,42.725,204.407
-1.427,0.365,-0.548,-101.318,30.457,178.284
0.014,1.392,-0.283,-86.487,14.221,147.888
1.037,1.181,-0.383,-87.463,-4.089,124.939
0.099,1.987,-0.743,-89.172,-20.813,117.371
-0.344,1.845,-0.238,-59.998,-36.255,129.272
-1.025,1.222,-0.433,-71.594,-72.144,143.311
-0.036,1.230,-0.442,-62.439,-130.493,165.710
0.105,0.946,-0.452,-87.646,-189.392,185.608
0.565,0.903,-0.484,-77.148,-244.812,147.156
-0.242,1.154,-0.980,-53.101,-256.714,105.347
-0.513,1.763,-1.116,-34.485,-110.168,109.680
-0.246,1.839,-2.398,-42.542,153.381,102.844
-0.406,1.523,-1.700,-74.341,370.178,66.284
0.973,2.115,-0.420,-60.669,434.448,65.430
0.807,1.807,-0.055,-40.405,418.213,27.710
0.830,2.299,0.042,10.498,362.427,-25.024
0.471,2.337,0.202,28.015,267.029,-15.808
-0.688,2.060,-0.022,0.793,171.509,31.250
0.156,1.883,-0.260,5.493,141.602,63.354
0.401,1.642,0.132,2.991,107.971,80.750
0.894,1.238,-0.159,-11.108,74.768,88.806
0.702,1.134,-0.292,-34.119,45.105,92.590
0.662,1.344,-0.178,-47.302,5.493,103.760
0.305,1.113,-0.481,-75.745,-30.945,113.342
0.377,1.414,-0.308,-69.702,-8.179,109.314
0.709,1.331,-0.492,-52.673,39.978,116.394
0.598,1.426,-0.270,-43.518,81.787,134.399
0.657,1.335,-0.184,-49.988,84.045,146.851
0.902,1.388,-0.003,-57.617,66.284,162.781
1.004,1.292,-0.029,-69.519,44.617,177.856
0.893,1.101,-0.202,-98.633,18.005,146.484
0.519,1.139,-0.408,-115.234,2.380,150.208
0.263,1.412,-0.409,-115.784,23.804,164.062
0.609,1.656,-0.257,-112.183,43.274,179.382
0.882,1.983,-0.202,-115.112,46.143,190.552
0.831,1.633,-0.082,-91.980,55.725,189.819
0.833,0.832,0.026,-88.684,81.543,180.603
0.587,1.081,0.121,-85.266,109.131,171.143
0.713,1.294,0.100,-67.688,123.169,158.386
0.996,1.299,0.000,-56.458,125.244,131.042
1.077,1.393,-0.109,-42.786,120.605,111.328
1.184,1.408,-0.194,-24.719,105.408,105.408
1.111,1.274,-0.234,-18.921,71.289,102.966
0.974,1.180,-0.283,-20.020,41.809,86.365
0.732,1.196,-0.332,-17.212,33.264,58.167
0.602,1.177,-0.319,-14.893,27.344,28.381
0.481,1.126,-0.286,-18.005,23.987,-13.062
0.433,1.025,-0.272,-19.836,21.667,-67.017
0.343,0.923,-0.262,8.606,18.433,-91.370
0.244,0.688,-0.276,54.993,14.038,-94.604
0.192,0.646,-0.292,101.929,-7.385,-97.107
0.260,0.491,-0.300,125.000,-44.189,-111.633
0.190,0.392,-0.348,112.366,-77.026,-154.053
0.035,0.320,-0.369,98.572,-109.192,-204.956
0.170,0.280,-0.310,111.023,-150.940,-266.968
0.238,0.310,-0.215,125.427,-200.134,-327.332
0.296,0.586,-0.262,132.751,-227.844,-340.210
0.217,0.853,-0.437,151.428,-209.534,-322.205
0.044,0.943,-0.593,163.879,-145.142,-302.246
-0.156,1.072,-0.684,193.604,-51.636,-288.086
-0.254,1.053,-0.725,206.665,42.480,-262.878
0.029,0.930,-0.543,200.378,109.131,-231.628
0.333,0.790,-0.197,204.163,122.314,-238.464
0.427,0.773,-0.146,188.965,88.501,-276.550
0.333,1.014,-0.171,151.245,38.574,-336.243
0.056,1.330,-0.259,130.371,-9.705,-370.300
-0.059,1.458,-0.328,117.737,-44.556,-363.037
-0.443,1.893,-0.357,100.037,-67.017,-396.240
-0.637,1.959,-0.478,89.844,-83.313,-399.170
-0.886,2.057,-0.549,83.191,-94.116,-383.789
-1.240,2.054,-0.660,73.242,-101.990,-365.051
-1.743,2.292,-0.862,60.730,-105.591,-342.102
-2.229,2.474,-1.095,45.227,-106.018,-313.965
-2.492,2.574,-1.298,29.846,-102.722,-277.222
-2.724,2.546,-1.526,18.860,-97.168,-226.562
-2.799,2.269,-1.842,12.939,-100.769,-159.058
-2.790,1.776,-1.962,2.991,-107.300,-91.431
-2.675,1.242,-2.012,-13.550,-109.863,-33.447
-2.565,0.937,-1.970,-37.964,-103.516,8.545
-2.817,0.992,-1.647,-54.138,-78.674,47.241
-2.780,0.962,-1.541,-61.340,-56.763,87.646
-2.649,0.864,-1.242,-63.232,-36.743,122.314
-2.013,0.638,-1.265,-81.360,-32.715,147.949
-0.903,0.638,-2.272,-128.662,-48.157,160.095
2.266,1.257,-0.052,-143.066,18.311,129.272
1.446,2.457,0.593,-152.832,110.413,158.142
-2.708,3.619,-0.236,-141.663,82.581,245.117
0.474,2.932,-0.873,-169.312,21.729,254.089
0.302,1.392,-1.991,-200.439,6.653,256.470
-2.079,2.241,-1.304,-171.204,11.353,253.540
-1.670,0.852,0.044,-123.230,37.659,235.962
-1.105,-0.027,-0.267,-123.291,56.152,198.120
0.746,0.188,-0.625,-101.685,50.903,118.958
0.177,1.338,-0.480,-85.449,24.353,111.938
-0.471,1.998,-0.709,-90.637,-5.798,103.271
-0.537,1.971,-0.789,-56.885,-45.654,116.577
-0.315,1.707,-0.187,-23.376,-73.914,142.700
-0.242,1.036,-0.445,-18.372,-73.425,166.321
0.611,0.983,-0.551,-26.306,-70.496,164.978
0.166,0.678,-0.843,-53.772,-96.741,114.258
-0.378,1.040,-0.469,-86.487,-154.175,65.430
-0.424,1.327,-1.362,-79.102,-215.271,56.580
-0.746,1.662,-1.255,-73.730,-142.151,36.194
0.642,1.463,-0.910,-39.734,36.987,-27.222
-0.161,1.898,-1.417,-60.913,230.713,-32.776
0.056,2.734,-0.624,-33.752,333.130,-21.484
0.515,2.971,-0.024,-0.427,346.924,4.578
0.040,2.639,-0.423,-2.380,311.401,59.753
0.509,2.243,0.066,11.353,262.329,108.154
0.288,1.542,0.122,1.587,204.163,111.755
0.612,1.509,0.157,8.728,154.907,75.562
0.407,1.088,-0.223,-19.958,108.948,70.679
0.603,1.439,0.094,-32.043,83.679,62.683
0.565,1.206,-0.288,-45.593,54.199,61.584
0.486,1.475,-0.120,-41.077,45.410,71.838
0.985,1.255,-0.262,-30.334,40.283,85.266
0.760,1.156,-0.255,-35.278,39.429,111.145
0.483,1.063,-0.344,-40.588,28.198,138.367
0.730,1.088,-0.312,-52.124,18.372,153.320
0.714,1.186,-0.283,-63.477,13.245,166.687
0.819,1.231,-0.233,-69.763,11.292,178.284
0.519,1.185,-0.254,-88.623,15.320,191.589
0.133,1.385,-0.641,-105.713,18.677,206.238
0.266,1.697,-0.583,-108.704,24.719,211.548
0.698,1.854,-0.412,-117.676,34.485,207.642
0.938,1.908,-0.235,-121.033,48.584,205.750
0.808,1.728,-0.121,-112.610,70.190,212.341
0.688,1.559,-0.018,-104.492,106.628,207.458
0.705,1.571,-0.022,-89.355,138.306,199.524
0.829,1.592,-0.059,-65.857,157.959,197.571
0.888,1.364,-0.062,-58.350,164.368,190.063
0.902,1.606,-0.105,-38.818,164.795,176.514
1.083,1.552,-0.058,-37.598,118.408,162.537
1.073,1.485,-0.210,-30.640,83.496,152.710
0.915,1.230,-0.224,-32.593,72.266,130.066
0.735,1.117,-0.129,-38.574,54.626,95.825
0.702,1.117,-0.163,-40.161,29.541,62.744
0.702,1.040,-0.210,-32.410,5.859,38.879
0.500,0.988,-0.262,-15.259,-8.728,22.095
0.240,0.822,-0.254,18.433,-16.235,11.353
0.140,0.553,-0.235,42.358,-22.095,-6.165
0.105,0.387,-0.280,59.326,-27.954,-31.433
0.100,0.242,-0.321,70.251,-32.898,-61.035
0.056,0.188,-0.351,83.984,-40.283,-98.083
-0.018,0.151,-0.395,98.816,-47.119,-140.991
-0.075,0.133,-0.450,111.877,-50.293,-190.979
-0.019,0.240,-0.476,120.667,-52.612,-232.178
0.005,0.305,-0.473,129.822,-54.993,-262.939
0.011,0.315,-0.495,135.559,-56.091,-291.870
0.054,0.370,-0.502,140.381,-59.082,-324.402
0.091,0.429,-0.460,147.339,-70.679,-362.671
0.113,0.561,-0.470,154.907,-70.251,-398.621
0.123,0.639,-0.443,155.090,-67.932,-426.941
0.071,0.663,-0.391,147.217,-72.205,-468.567
0.063,0.643,-0.319,124.817,-91.187,-529.297
0.247,0.708,-0.177,101.501,-124.512,-561.646
0.860,1.073,-0.354,118.347,-117.615,-488.403
0.682,2.056,-0.628,194.397,-39.612,-378.784
0.073,1.549,-0.654,192.261,19.531,-287.659
-0.076,1.686,-0.383,173.828,19.348,-242.249
-0.232,1.538,-0.360,144.775,-21.912,-258.179
-0.475,1.851,-0.399,110.352,-82.214,-317.383
-0.835,2.019,-0.537,69.153,-149.841,-364.624
-1.293,2.245,-0.824,50.354,-183.594,-369.080
-1.890,2.575,-1.046,36.011,-197.815,-355.591
-2.403,2.950,-1.187,37.048,-178.040,-331.116
-2.715,3.038,-1.535,38.025,-140.503,-284.424
-2.823,2.832,-1.892,42.725,-114.136,-211.243
-2.734,2.188,-2.168,38.208,-103.210,-136.963
-2.548,1.386,-2.388,17.883,-100.708,-78.918
-2.419,0.893,-2.280,-18.555,-95.642,-39.429

-0.346,1.703,-0.526,158.508,20.203,-262.390
-0.610,1.926,-0.521,130.066,-18.127,-294.067
-0.881,1.980,-0.611,104.309,-62.134,-319.824
-1.279,2.104,-0.768,77.026,-101.685,-331.299
-1.704,2.298,-0.941,61.462,-120.239,-329.773
-2.030,2.529,-1.183,51.208,-117.554,-302.734
-2.358,2.673,-1.425,46.936,-106.689,-254.578
-2.532,2.427,-1.666,41.138,-102.783,-186.462
-2.489,1.823,-1.881,28.137,-107.666,-117.310
-2.547,1.231,-2.028,4.883,-112.732,-62.317
-2.514,0.892,-2.008,-23.254,-112.366,-21.118
-2.518,0.801,-1.935,-51.331,-105.652,12.085
-2.792,0.929,-1.562,-62.927,-84.534,44.556
-2.484,0.866,-1.529,-67.688,-69.153,84.534
-2.453,0.870,-1.434,-87.280,-63.477,120.972
-2.333,1.008,-2.618,-138.184,-96.252,175.964
-0.898,1.153,-1.722,-190.491,-49.561,206.909
1.492,2.974,0.989,-165.710,66.406,195.923
-0.845,3.276,0.190,-145.996,73.730,246.338
0.346,2.599,-0.657,-154.297,34.912,281.128
0.006,1.578,-1.979,-203.125,1.526,275.818
-2.686,1.816,-2.754,-197.144,-13.550,252.563
-1.370,1.074,0.676,-122.192,29.053,237.366
-0.396,-0.451,0.078,-127.991,60.730,208.862
0.707,0.403,-0.432,-105.469,80.627,110.779
-0.562,1.605,-0.871,-90.698,50.842,106.934
-0.996,1.700,-1.222,-96.375,-20.142,113.525
-0.448,1.795,-0.404,-64.880,-54.321,122.925
0.283,1.408,-0.119,-33.142,-65.979,138.245
0.195,1.154,-0.493,-42.847,-90.088,152.954
-0.046,1.098,-0.826,-60.120,-140.625,142.761
-0.021,1.032,-0.412,-89.966,-214.478,132.080
-0.818,1.001,-0.983,-94.788,-267.761,125.488
-0.314,1.327,-1.494,-47.974,-201.965,103.027
0.272,1.760,-1.574,-33.997,23.926,72.998
0.012,1.734,-1.792,-35.156,263.306,40.894
-0.044,1.756,-1.184,-83.374,368.958,19.226
0.087,2.817,-0.162,-55.481,390.320,18.188
0.603,2.550,-0.566,-6.836,347.168,19.958
-0.021,2.635,0.304,3.479,305.359,38.025
0.780,1.832,0.182,15.747,226.868,52.368
0.345,1.529,0.100,-13.550,159.180,56.091
0.115,1.622,-0.204,-17.761,135.498,47.729
0.263,1.325,-0.333,-24.536,105.469,60.608
0.058,1.376,-0.253,-36.926,68.726,77.759
0.808,1.358,-0.419,-38.574,32.654,82.764
0.852,1.392,0.014,-40.405,19.470,91.125
0.776,1.302,-0.143,-43.030,25.879,105.530
-0.020,1.196,-0.282,-56.824,41.138,128.296
0.223,1.331,-0.546,-66.040,42.480,141.785
0.538,1.237,-0.434,-86.121,44.067,142.578
0.643,1.587,-0.259,-81.299,63.354,150.269
0.658,1.564,-0.019,-82.764,88.928,156.006
0.423,1.501,-0.410,-110.168,95.947,134.583
0.534,2.003,-0.761,-115.601,69.153,167.664
1.101,2.014,-0.711,-118.103,38.330,187.073
1.606,1.896,-0.414,-130.127,25.452,185.791
1.440,1.831,-0.392,-138.245,21.729,195.618
1.062,1.825,-0.321,-130.737,37.781,199.524
0.969,1.781,-0.259,-114.258,68.298,196.716
0.838,1.703,-0.111,-102.112,98.572,191.589
0.723,1.763,-0.122,-80.994,129.211,188.354
0.974,1.491,-0.052,-80.017,120.972,157.715
1.060,1.667,-0.177,-66.956,115.967,132.996
0.817,1.731,-0.254,-36.926,134.827,132.812
0.673,1.276,-0.187,-20.020,133.118,112.244
0.717,1.103,-0.050,-13.611,109.558,92.163
0.745,0.923,0.001,-4.517,85.327,66.833
0.727,0.783,-0.066,-0.366,64.087,36.682
0.472,0.723,-0.206,-1.404,36.072,1.343
0.181,0.473,-0.138,2.258,18.127,-40.039
0.191,0.186,0.006,22.644,15.259,-75.989
0.199,0.051,0.083,63.354,12.390,-97.229
0.139,-0.069,0.057,101.868,-1.282,-116.882
0.033,-0.114,0.036,125.977,-22.644,-140.015
0.025,-0.097,-0.042,119.873,-59.937,-182.129
-0.095,-0.004,-0.134,113.953,-83.984,-233.154
0.139,-0.143,-0.085,109.436,-138.123,-279.175
0.355,0.000,-0.035,128.540,-183.960,-336.792
0.401,0.145,-0.052,141.907,-231.445,-374.146
0.355,0.425,-0.125,149.658,-255.310,-380.371
0.219,0.627,-0.329,157.532,-239.685,-376.221
0.107,0.762,-0.484,161.865,-183.350,-361.328
0.032,1.048,-0.591,187.195,-87.341,-329.529
-0.121,1.144,-0.603,220.215,18.188,-293.701
0.091,0.984,-0.508,208.923,94.177,-244.812
0.346,0.824,-0.161,210.632,110.718,-242.310
0.260,0.810,-0.229,191.162,75.989,-296.204
-0.182,1.098,-0.397,155.762,24.231,-372.314
-0.338,1.376,-0.505,133.972,-23.132,-393.616
-0.433,1.558,-0.543,116.028,-70.251,-400.574
-0.455,1.738,-0.599,103.882,-106.018,-398.010
-0.626,1.776,-0.694,92.712,-129.883,-386.292
-1.098,2.016,-0.869,77.942,-136.719,-373.962
-1.575,2.430,-1.075,63.232,-126.648,-355.835
-2.090,2.868,-1.357,44.189,-102.417,-325.439
-2.588,3.170,-1.452,35.828,-74.097,-284.912
-2.849,2.959,-1.635,36.865,-53.772,-218.689
-2.766,2.280,-1.909,37.292,-51.758,-145.325
-2.587,1.504,-2.035,16.174,-57.983,-84.473
-2.493,1.070,-2.006,-11.353,-61.646,-40.710
-2.555,0.930,-1.543,-29.541,-54.199,-5.615
-2.477,0.887,-1.242,-45.715,-43.091,35.828
-2.347,1.087,-0.844,-58.899,-29.236,78.247
-2.425,1.172,-0.572,-54.810,-26.917,122.925
-1.362,0.781,-0.398,-56.030,-47.241,153.870
-0.562,0.389,-1.771,-96.313,-97.046,164.246
2.511,0.230,-2.014,-156.128,-120.728,146.057
3.955,1.627,0.589,-170.288,3.296,82.825
-2.160,3.947,-0.512,-157.532,14.648,151.428
-2.374,3.249,-1.340,-196.655,-57.617,236.145
-0.168,2.419,-2.577,-203.308,-86.304,256.348
-2.706,2.920,-2.166,-183.472,-6.165,253.296
-0.941,1.902,0.963,-88.745,113.159,274.475
-0.031,-0.613,0.377,-104.187,163.391,257.935
0.029,-0.071,-0.572,-78.979,166.565,155.823
-0.555,0.795,-0.392,-75.256,107.971,122.498
-0.937,1.251,-0.897,-103.577,31.677,104.126
-0.003,1.863,-0.386,-90.698,-13.367,85.815
0.571,1.625,-0.372,-59.082,-36.621,82.520
-0.100,1.456,-0.519,-43.884,-32.959,89.111
-0.301,1.211,-0.779,-31.311,-49.316,92.285
-0.339,1.149,-1.115,-29.541,-108.337,85.083
-0.097,1.348,-0.246,-41.321,-150.757,89.783
0.004,1.161,-0.862,-59.937,-187.073,106.445
-0.008,1.571,-0.358,-82.275,-188.904,105.652
0.414,1.323,-0.811,-55.908,-86.487,3.601
-0.258,1.583,-2.012,-60.242,136.292,-101.624
-0.165,3.053,-1.136,-33.020,310.059,-86.853
-0.367,3.239,-0.534,-1.648,372.925,9.949
0.818,2.903,0.284,32.654,381.836,103.333
1.146,1.719,0.033,-8.362,342.529,170.959
0.588,1.452,0.212,-1.038,280.945,149.292
0.208,1.349,0.206,10.803,201.843,97.534
0.195,1.144,-0.377,-18.127,128.479,87.280
0.601,1.408,-0.103,-34.729,90.942,87.463
0.997,1.286,-0.122,-45.532,48.279,81.909
1.209,1.269,0.016,-49.255,20.447,83.496
1.148,1.116,-0.233,-54.321,3.052,96.008
0.529,1.087,-0.277,-60.486,2.808,125.305
0.408,1.125,-0.544,-71.228,5.005,156.006
0.404,1.463,-0.510,-72.754,14.099,174.011
1.004,1.558,-0.371,-67.383,28.809,181.519
1.176,1.432,-0.185,-72.144,37.964,195.068
0.952,1.361,-0.230,-81.543,42.969,209.656
0.599,1.258,-0.405,-92.773,48.523,219.543
0.422,1.354,-0.385,-94.971,57.861,219.360
0.776,1.458,-0.160,-96.558,67.993,208.313
1.035,1.572,0.024,-94.971,76.355,196.045
1.071,1.442,0.109,-90.698,90.637,184.509
1.111,1.584,0.208,-80.933,107.239,182.556
0.833,1.408,0.016,-55.847,131.287,175.720
0.771,1.105,0.149,-39.429,142.700,156.433
0.997,1.444,0.172,-33.447,111.328,150.269
1.134,1.641,0.008,-20.264,87.097,141.846
0.964,1.473,-0.069,-24.414,72.571,116.943
0.673,1.361,-0.112,-39.551,51.514,68.909
0.551,1.342,-0.205,-43.884,30.334,27.832
0.616,1.245,-0.239,-28.625,7.507,13.489
0.523,1.289,-0.258,-3.540,-11.047,15.137
0.340,1.094,-0.301,33.142,-23.499,15.991
0.191,0.961,-0.367,55.420,-26.855,5.249
0.008,0.806,-0.388,69.031,-28.564,-11.902
-0.084,0.550,-0.383,77.759,-33.447,-37.415
-0.174,0.505,-0.396,91.431,-43.396,-77.332
-0.217,0.437,-0.439,105.591,-52.795,-121.155
-0.210,0.438,-0.566,112.915,-55.176,-160.095
-0.280,0.449,-0.649,123.962,-50.842,-196.777
-0.170,0.401,-0.586,130.310,-48.767,-225.525
-0.027,0.380,-0.548,133.789,-55.908,-251.770
0.090,0.452,-0.544,137.817,-69.031,-282.166
0.073,0.408,-0.630,139.893,-82.520,-323.364
-0.041,0.426,-0.659,143.188,-90.149,-372.253
-0.059,0.507,-0.572,149.048,-104.919,-407.471
-0.012,0.655,-0.536,145.630,-102.051,-417.114
0.038,0.713,-0.492,136.963,-99.731,-427.856
0.138,0.683,-0.417,124.695,-107.910,-443.176
0.486,0.778,-0.421,120.605,-105.896,-411.255
0.503,1.330,-0.608,159.180,-62.744,-349.854
0.010,1.208,-0.641,180.237,-19.470,-294.434
-0.305,1.250,-0.586,165.039,-8.911,-251.343
-0.516,1.127,-0.592,145.569,-24.048,-242.920
-0.788,1.292,-0.576,120.300,-55.847,-265.442
-1.051,1.317,-0.612,92.896,-93.933,-298.218
-1.510,1.540,-0.808,61.218,-125.671,-321.594
-2.125,1.827,-1.037,46.082,-136.963,-325.684
-2.448,2.116,-1.283,36.377,-132.874,-309.387
-2.613,2.313,-1.380,29.358,-113.342,-276.917
-2.771,2.415,-1.622,25.452,-89.417,-229.675
-2.864,2.229,-1.813,26.917,-74.219,-167.175
-2.618,1.647,-2.084,21.240,-75.378,-104.614
-2.408,1.120,-2.018,-1.587,-76.416,-60.913
-2.321,1.006,-2.015,-30.396,-67.627,-29.602
-2.608,1.084,-1.605,-43.030,-40.588,4.211
-2.616,1.097,-1.225,-44.189,-17.334,50.781
-1.851,0.796,-1.424,-57.678,-18.066,90.332
-1.739,0.670,-2.992,-123.108,-56.396,124.939
0.869,1.474,-1.187,-168.945,14.343,108.093
1.743,3.758,1.704,-157.471,146.790,106.567
-1.597,3.968,0.074,-149.170,97.412,229.553
0.949,2.720,-0.717,-173.584,26.489,276.733
0.210,1.390,-1.305,-183.960,9.766,281.128
-1.530,0.901,-1.363,-184.387,1.343,278.564
-1.611,-0.257,-1.335,-126.587,22.461,227.051
0.297,-0.365,0.041,-71.533,72.205,199.280
-0.158,0.296,-0.336,-89.539,67.444,147.522
-0.253,1.969,-0.513,-100.708,14.404,125.610
-1.031,2.025,-1.086,-102.722,-31.555,123.962
-0.233,2.098,-0.416,-63.049,-38.330,144.531
0.313,1.195,-0.027,-39.185,-51.758,166.321
-0.329,1.167,0.017,-78.430,-91.492,170.898
-0.153,1.095,-0.570,-75.684,-120.239,131.409
-0.432,0.863,-1.323,-87.158,-161.011,96.375
-0.264,1.093,-0.238,-82.336,-206.848,92.896
-0.430,1.224,-1.243,-72.266,-199.463,120.239
0.263,1.354,-0.882,-49.683,-52.002,87.524
0.325,1.276,-1.436,-24.353,121.460,20.386
-0.895,2.099,-1.859,-37.415,259.033,29.663
0.145,2.342,-1.032,-46.143,316.345,53.040
-0.411,2.371,-0.624,-64.941,339.050,66.345
0.420,2.983,0.458,5.127,344.482,65.918
1.043,1.867,0.155,14.893,281.311,67.688
0.250,1.834,0.082,-2.808,218.323,57.251
0.159,1.961,0.158,-2.686,160.400,48.523
-0.133,1.501,-0.540,-15.869,124.084,54.260
0.089,1.716,-0.089,-19.043,107.788,71.228
0.444,1.352,-0.185,-22.644,73.975,85.754
0.967,1.313,0.043,-29.724,53.528,92.041
1.215,1.204,-0.095,-36.011,36.011,93.933
0.846,1.287,-0.295,-40.466,32.349,100.891
0.602,1.210,-0.472,-45.837,34.973,113.708
-0.021,1.252,-0.558,-57.922,37.415,139.343
0.726,1.419,-0.580,-65.857,18.494,152.588
1.127,1.479,-0.123,-77.637,4.089,155.762
1.095,1.413,-0.179,-84.717,-2.869,176.331
0.807,1.419,-0.273,-100.708,0.671,188.660
0.490,1.605,-0.540,-120.789,6.409,175.842
0.562,1.819,-0.546,-126.709,19.287,196.838

-0.861,2.823,-1.302,-184.204,12.268,267.761
-0.160,2.026,-0.727,-150.452,31.860,260.742
0.144,0.585,-0.766,-135.986,42.053,249.817
-1.141,0.205,-1.578,-145.874,-6.287,217.102
-0.404,0.101,-1.103,-142.029,-18.127,148.071
-1.800,1.033,-0.797,-95.337,6.836,91.431
-0.004,2.116,-0.077,-72.021,6.531,168.884
0.616,1.810,-0.116,-95.642,-11.841,205.261
0.315,1.873,-0.478,-120.361,-53.833,193.726
-0.363,1.227,-0.276,-131.226,-124.268,157.410
-0.925,0.375,-0.591,-154.541,-173.462,123.657
-0.396,0.769,-1.287,-104.187,-119.202,72.205
0.174,1.183,-1.330,-70.007,18.738,47.302
0.190,1.286,-1.533,-45.898,161.499,34.912
-0.192,1.499,-1.488,-38.391,234.375,36.072
0.199,1.652,-0.476,-19.287,258.362,42.542
-0.496,1.507,-1.218,-11.536,243.896,62.256
0.008,2.069,-0.458,23.865,237.732,65.857
1.130,1.566,-0.431,21.545,189.270,58.777
0.314,2.256,-0.034,4.700,143.127,45.288
0.310,2.373,-0.305,-0.427,106.018,52.856
0.289,2.184,-0.488,-14.099,82.886,66.284
-0.284,2.269,0.018,-8.301,83.618,77.515
0.173,1.579,-0.172,-3.601,87.585,79.041
0.386,1.521,0.135,3.174,104.187,75.989
0.601,1.196,-0.050,-0.183,100.891,72.876
0.045,1.084,-0.322,-13.428,92.834,78.735
0.444,1.220,-0.259,-16.479,83.069,82.397
0.130,1.276,-0.437,-24.109,72.144,89.783
0.573,1.471,-0.359,-19.714,60.852,99.182
0.835,1.178,-0.425,-25.757,42.969,115.662
0.654,1.105,-0.414,-35.706,30.945,134.521
0.976,0.987,-0.331,-46.509,15.198,145.691
1.185,1.050,-0.227,-62.988,1.709,155.762
0.859,1.139,-0.258,-75.195,-3.967,171.936
0.712,1.238,-0.335,-87.891,0.122,189.087
0.406,1.369,-0.541,-103.149,9.644,205.933
0.402,1.596,-0.542,-113.525,24.170,203.064
0.860,1.805,-0.326,-120.117,39.185,204.468
1.105,1.886,-0.153,-125.183,59.875,202.209
1.079,1.848,-0.113,-117.065,83.679,205.017
0.833,1.611,-0.093,-104.065,112.915,204.773
0.911,1.566,-0.055,-93.079,144.104,195.129
1.172,1.662,0.027,-75.439,158.081,196.045
1.238,1.408,0.043,-71.411,127.197,179.565
1.176,1.554,0.068,-70.007,83.801,173.828
1.194,1.528,-0.151,-56.458,69.153,157.959
1.024,1.507,-0.266,-50.232,55.908,133.423
0.887,1.275,-0.210,-55.908,41.565,89.478
0.693,1.233,-0.122,-61.279,16.541,50.049
0.656,1.168,-0.178,-44.983,-5.615,36.804
0.571,1.157,-0.276,-21.790,-16.663,24.658
0.389,1.011,-0.304,1.282,-25.146,9.460
0.235,0.913,-0.299,27.039,-26.062,-7.141
0.056,0.672,-0.282,49.500,-19.470,-34.180
0.045,0.428,-0.257,58.289,-16.541,-64.758
0.016,0.344,-0.247,63.965,-23.254,-99.182
-0.044,0.301,-0.247,72.632,-34.851,-134.705
-0.165,0.285,-0.266,85.754,-44.067,-174.683
-0.245,0.315,-0.293,99.731,-50.110,-212.402
-0.162,0.400,-0.284,109.192,-58.594,-245.056
-0.061,0.480,-0.316,118.469,-69.458,-270.813
-0.050,0.528,-0.336,127.380,-78.186,-294.617
-0.066,0.549,-0.403,134.583,-80.505,-326.294
-0.089,0.524,-0.448,144.592,-86.182,-376.404
-0.049,0.616,-0.401,158.569,-109.558,-435.120
0.095,0.747,-0.382,161.133,-126.221,-468.262
0.235,0.818,-0.266,143.188,-162.964,-482.666
0.315,0.879,-0.156,135.193,-212.646,-512.390
0.569,1.018,-0.208,132.202,-236.328,-509.644
0.840,1.758,-0.588,162.720,-163.025,-425.964
-0.059,2.362,-0.957,232.666,-12.146,-337.952
-0.422,1.920,-0.832,210.205,100.159,-252.563
-0.418,1.794,-0.477,199.219,132.629,-220.703
-0.608,1.658,-0.289,184.937,97.290,-251.648
-0.816,1.617,-0.358,137.146,19.836,-304.443
-1.196,2.049,-0.484,93.018,-60.852,-342.834
-1.528,2.329,-0.814,62.744,-107.117,-344.360
-2.013,2.587,-0.965,37.537,-145.447,-330.322
-2.445,2.883,-1.097,26.611,-162.109,-292.419
-2.726,2.836,-1.428,28.687,-159.363,-230.225
-2.808,2.373,-1.771,31.006,-149.841,-149.719
-2.746,1.698,-2.082,19.531,-139.587,-74.097
-2.609,1.119,-2.204,-3.479,-129.700,-20.020
-2.624,0.800,-1.941,-34.241,-111.938,16.418
-2.531,0.863,-1.776,-60.242,-94.543,49.500
-2.710,1.015,-1.538,-70.313,-81.482,88.379
-2.652,0.954,-1.269,-71.289,-68.787,128.967
-1.957,0.624,-0.983,-70.679,-54.138,156.189
-1.100,0.566,-1.277,-85.999,-57.739,168.396
1.370,0.375,-1.762,-126.343,-67.688,171.326
4.000,0.995,0.178,-153.931,28.442,126.587
-0.878,3.127,-0.064,-175.110,73.181,144.104
-2.459,3.698,-0.297,-181.702,1.404,238.892
-0.215,1.960,-2.458,-202.454,-52.063,259.094
-1.805,2.771,-2.838,-214.111,-63.538,229.004
-2.576,2.618,0.492,-154.114,18.921,237.122
-0.156,0.298,0.582,-99.976,55.176,257.080
-0.214,-0.677,-0.418,-99.976,89.600,170.288
-0.028,1.022,-0.704,-84.412,83.923,124.268
-0.461,1.343,-0.991,-110.962,1.221,131.531
-0.059,2.087,-0.027,-121.582,-75.684,147.034
-0.111,1.503,-0.554,-121.277,-137.024,188.049
0.239,1.047,-0.133,-134.521,-159.973,174.072
0.348,0.654,-0.850,-106.750,-154.358,111.450
-0.472,0.932,-1.785,-71.533,-68.726,44.128
-0.397,1.242,-2.185,-46.143,61.218,25.574
-0.596,1.619,-1.364,-30.579,179.138,43.884
0.263,1.438,-0.724,-3.967,249.146,59.448
0.380,1.483,-0.918,-8.667,274.780,60.608
0.599,1.886,-0.390,-15.808,257.446,35.278
0.201,2.388,-0.178,-8.972,212.463,24.109
-0.092,2.665,-0.697,-8.057,167.603,33.936
0.185,2.744,0.010,-6.775,152.222,61.279
0.223,1.956,-0.072,-10.559,129.333,76.904
0.642,1.787,0.180,-7.202,118.774,72.693
0.331,1.498,-0.142,-20.813,102.173,68.237
0.123,1.684,-0.026,-24.963,91.797,71.533
0.182,1.382,-0.458,-32.898,73.975,77.820
0.061,1.478,-0.209,-36.499,78.247,89.294
0.920,1.354,-0.189,-28.931,81.543,91.431
0.946,1.254,-0.154,-31.616,79.407,97.656
0.916,1.151,-0.144,-35.950,71.716,105.530
0.529,1.040,-0.304,-51.636,60.120,125.427
0.425,1.087,-0.486,-68.726,42.053,139.893
0.735,1.333,-0.344,-74.280,31.372,144.287
0.949,1.326,-0.199,-78.064,28.076,152.039
0.858,1.239,-0.198,-82.581,36.865,169.922
0.494,1.130,-0.487,-95.276,53.467,181.519
0.296,1.342,-0.489,-101.379,72.632,180.725
0.688,1.657,-0.275,-96.252,89.355,182.007
1.109,1.654,-0.081,-94.910,99.670,178.284
1.093,1.541,0.013,-84.961,112.244,182.068
0.921,1.458,0.016,-73.486,127.502,185.059
0.990,1.521,0.035,-61.584,144.348,177.795
1.139,1.319,0.177,-60.791,120.178,165.100
1.219,1.413,0.068,-48.889,98.999,162.109
1.134,1.408,-0.016,-44.312,98.389,142.944
1.182,1.448,-0.151,-46.143,79.346,108.215
1.080,1.402,-0.221,-61.340,50.720,56.152
0.929,1.282,-0.295,-58.838,29.907,31.677
0.725,1.329,-0.277,-48.096,18.127,16.296
0.661,1.353,-0.343,-23.743,7.812,13.794
0.619,1.269,-0.390,2.563,1.404,18.188
0.469,1.177,-0.429,23.499,-0.183,3.662
0.290,0.973,-0.412,36.499,0.000,-20.630
0.155,0.801,-0.396,51.758,2.075,-48.340
0.095,0.575,-0.385,62.317,1.099,-76.355
0.033,0.476,-0.408,75.867,-3.967,-109.863
-0.061,0.403,-0.413,94.421,-9.949,-155.273
-0.064,0.335,-0.419,100.586,-22.217,-201.294
0.020,0.342,-0.398,102.661,-33.203,-239.441
0.063,0.349,-0.378,105.164,-42.786,-276.001
0.088,0.372,-0.321,111.755,-74.768,-327.026
0.179,0.432,-0.285,126.465,-112.671,-389.893
0.332,0.546,-0.250,125.854,-155.457,-414.673
0.488,0.643,-0.235,119.263,-200.439,-412.048
0.430,0.676,-0.248,120.789,-236.938,-438.660
0.430,0.731,-0.309,120.667,-258.301,-462.708
0.623,1.135,-0.473,122.498,-226.379,-416.138
0.493,1.781,-0.757,178.223,-118.652,-338.135
-0.005,1.611,-0.837,192.688,-3.906,-261.169
0.102,1.504,-0.585,176.636,50.659,-203.003
0.133,1.347,-0.364,172.180,38.452,-223.083
-0.171,1.494,-0.439,141.602,-15.747,-297.180
-0.598,1.911,-0.502,97.046,-81.177,-370.239
-0.683,2.025,-0.715,79.834,-129.883,-371.216
-1.092,2.031,-0.918,62.073,-159.973,-360.291
-1.460,2.222,-1.126,55.786,-160.828,-340.637
-1.947,2.457,-1.337,45.959,-132.080,-319.275
-2.504,2.863,-1.509,42.664,-87.952,-286.133
-2.928,2.808,-1.715,41.199,-55.359,-232.422
-2.939,2.321,-1.782,36.255,-47.302,-164.001
-2.692,1.638,-1.934,17.761,-56.274,-99.121
-2.620,1.218,-1.925,-12.756,-64.819,-48.828
-2.668,1.079,-1.834,-42.236,-70.618,-7.996
-2.882,1.122,-1.434,-62.317,-68.604,31.616
-3.155,1.229,-1.102,-65.063,-57.800,78.186
-2.647,1.065,-0.925,-64.819,-47.668,122.131
-1.960,0.760,-1.051,-76.538,-53.528,149.170
-1.236,0.576,-2.734,-128.052,-97.778,183.044
1.931,0.821,-1.175,-169.800,-33.325,159.668
1.751,2.570,0.648,-156.006,113.403,133.118
-2.493,3.581,0.016,-152.283,107.361,218.872
-0.525,3.378,-0.735,-161.865,51.636,278.320
0.219,1.367,-2.563,-197.144,26.062,289.124
-2.504,2.359,-2.083,-185.364,22.278,261.963
-0.574,1.238,1.115,-102.783,74.646,242.737
-0.344,-0.619,-0.003,-99.792,63.660,193.176
-0.266,0.834,-0.824,-104.309,24.231,127.136
-0.552,1.529,-1.069,-87.158,-22.034,135.742
-0.424,2.073,-0.683,-70.923,-52.185,130.981
-0.065,1.624,-0.203,-59.387,-75.439,162.109
0.125,1.432,0.055,-84.351,-140.137,214.661
0.182,1.134,-0.153,-108.826,-205.444,215.149
-0.349,0.731,-1.172,-113.098,-196.289,142.334
-0.630,0.769,-2.052,-78.186,-111.328,56.641
-0.489,1.392,-1.648,-53.345,46.448,22.156
0.307,1.228,-1.077,-47.791,183.350,1.953
0.184,1.629,-1.059,-48.035,248.657,-10.315
0.363,2.191,-0.846,-24.231,273.376,-21.729
0.377,2.718,-0.258,-2.808,277.466,-1.404
-0.058,2.789,-0.679,7.690,254.700,29.968
0.198,2.816,0.052,17.090,229.553,64.026
0.377,1.894,0.161,13.123,191.956,86.548
0.591,1.538,0.192,10.437,166.382,77.026
0.352,1.427,-0.082,0.244,139.771,64.697
0.125,1.481,0.030,-8.911,117.859,64.087
0.082,1.271,-0.434,-19.958,79.895,67.627
0.126,1.428,-0.103,-25.574,58.533,77.026
0.953,1.255,-0.082,-17.029,41.870,76.416
1.062,1.158,-0.109,-18.494,31.250,80.261
0.902,1.163,-0.294,-21.667,21.973,92.529
0.235,1.142,-0.326,-30.884,19.836,117.859
0.187,1.106,-0.618,-43.457,15.442,138.367
0.655,1.126,-0.405,-53.711,13.428,146.606
0.892,1.070,-0.314,-62.744,12.085,156.921
0.777,0.999,-0.140,-71.106,17.517,172.241
0.320,1.061,-0.443,-91.003,22.644,192.383
0.325,1.366,-0.546,-102.661,25.146,202.087
0.757,1.656,-0.326,-111.145,31.982,198.853
0.993,1.758,-0.129,-115.479,47.607,195.740
1.007,1.706,-0.032,-110.901,70.557,198.181
0.864,1.496,0.029,-99.792,96.069,203.186
0.735,1.399,0.026,-89.844,119.080,196.411
0.859,1.435,-0.017,-78.857,137.939,186.890
1.020,1.366,-0.016,-73.364,137.329,182.861
0.980,1.524,-0.071,-60.486,134.583,169.678
1.025,1.448,0.057,-63.232,94.849,154.846
1.110,1.723,-0.201,-54.138,65.674,143.127
1.102,1.710,-0.353,-38.391,50.842,129.089
0.969,1.350,-0.396,-47.058,34.302,85.571
0.736,1.370,-0.312,-57.678,25.635,39.673
0.556,1.276,-0.305,-40.771,8.911,30.518
0.508,1.285,-0.364,-17.700,-4.883,20.935
0.416,1.167,-0.414,8.484,-8.240,13.000
0.266,1.081,-0.412,40.710,-3.540,0.000
0.188,0.803,-0.381,61.035,1.892,-24.048

0.418,1.433,-0.699,-108.215,38.208,110.718
0.780,1.694,-0.468,-110.107,61.707,109.192
0.929,2.001,-0.216,-113.586,83.435,120.239
1.030,1.899,-0.137,-112.549,99.182,133.728
1.122,1.714,-0.017,-98.022,120.178,146.606
1.086,1.569,0.071,-72.266,153.259,175.110
1.155,1.398,0.224,-53.284,155.945,189.270
1.130,1.277,0.174,-44.617,137.634,191.956
1.065,1.129,0.067,-44.861,125.122,173.584
1.138,1.196,-0.035,-41.504,115.234,149.658
1.240,1.244,-0.085,-43.640,86.365,127.136
1.210,1.205,-0.182,-49.133,52.917,93.933
1.111,0.981,-0.244,-61.584,26.306,47.852
0.896,0.942,-0.248,-49.683,12.390,34.668
0.659,1.134,-0.327,6.470,17.212,36.194
0.526,1.073,-0.345,59.692,2.197,44.250
0.506,0.988,-0.360,103.821,-21.667,63.232
0.345,0.643,-0.290,123.901,-46.265,46.570
0.177,0.267,-0.315,132.629,-55.847,-8.606
0.198,0.090,-0.363,130.127,-79.407,-69.336
0.249,0.017,-0.390,125.732,-111.877,-127.075
0.232,0.030,-0.368,129.395,-146.118,-173.523
0.195,0.161,-0.386,151.978,-190.796,-224.060
0.255,0.252,-0.367,177.368,-239.075,-265.808
0.329,0.365,-0.431,196.289,-263.062,-282.043
0.271,0.574,-0.673,210.937,-238.220,-280.029
0.080,0.739,-0.903,219.788,-153.076,-264.893
-0.179,0.910,-1.029,241.394,-37.048,-249.939
-0.248,0.850,-0.981,245.300,66.101,-227.051
0.080,0.680,-0.763,236.511,126.343,-207.581
0.446,0.605,-0.432,233.337,121.399,-231.628
0.504,0.666,-0.471,204.163,71.472,-271.423
0.346,0.923,-0.580,175.232,20.325,-324.890
0.126,1.020,-0.673,143.311,-13.245,-374.756
-0.114,1.219,-0.709,125.000,-28.992,-383.972
-0.318,1.463,-0.751,114.929,-29.907,-382.385
-0.436,1.654,-0.766,107.056,-19.775,-390.503
-0.520,1.851,-0.765,95.825,-14.893,-383.362
-0.643,1.807,-0.745,75.378,-26.367,-368.652
-0.886,2.113,-0.733,49.011,-48.767,-357.056
-1.454,2.454,-0.923,22.705,-73.486,-342.651
-2.182,2.707,-1.128,5.798,-68.237,-322.327
-2.962,2.945,-1.254,-1.038,-43.945,-283.691
-3.295,2.702,-1.369,7.141,-33.203,-217.957
-3.092,2.117,-1.747,9.460,-43.091,-139.282
-2.742,1.492,-2.016,-2.136,-53.223,-76.233
-2.344,1.038,-1.876,-20.813,-66.467,-30.823
-2.346,0.817,-1.422,-44.006,-69.397,6.409
-2.504,0.982,-1.155,-58.716,-55.054,47.729
-2.657,1.060,-0.823,-53.833,-31.250,89.905
-2.258,0.771,-0.503,-49.866,-15.442,121.399
-1.593,0.437,-0.247,-61.340,-10.498,134.155
-1.505,0.407,-1.153,-98.877,-35.828,152.466
1.187,0.604,-1.094,-137.756,-56.763,139.771
1.826,1.739,-0.427,-193.909,8.423,120.728
-2.050,4.000,-0.399,-173.218,19.287,181.519
-0.014,3.467,-1.428,-183.350,-24.719,212.891
-0.302,2.559,-1.431,-192.444,-16.235,256.714
-1.766,2.298,-1.510,-149.231,35.645,264.526
-1.383,0.486,0.429,-80.322,99.792,230.042
-1.026,-0.344,-0.475,-64.026,77.148,240.967
0.983,-0.105,-0.378,-62.805,49.377,183.105
0.322,0.642,-0.726,-98.633,19.043,88.196
-0.338,2.130,-0.590,-107.788,-30.457,43.884
-1.112,2.239,-0.672,-90.027,-75.989,76.355
-0.076,1.823,-0.141,-43.274,-99.731,130.371
0.484,1.035,-0.342,-18.555,-136.963,140.381
0.079,0.921,-0.576,-21.545,-134.460,113.220
-0.298,1.117,-1.112,-41.199,-108.215,110.107
-0.497,1.413,-1.400,-85.754,-122.437,130.554
-0.408,1.109,-0.360,-101.563,-120.544,71.045
0.040,0.949,-1.507,-53.650,0.244,-70.801
0.122,1.878,-1.159,-49.377,220.337,-105.225
0.307,2.668,-0.675,-26.855,350.708,-30.701
-0.027,2.946,-0.754,-6.714,379.456,36.865
0.749,2.836,-0.110,-11.047,332.458,97.534
-0.045,2.116,-0.205,-25.818,244.507,128.967
0.574,1.798,0.439,17.395,184.875,83.679
0.773,1.320,0.101,-4.944,128.235,62.500
0.482,1.323,-0.089,-20.996,97.595,59.753
0.736,1.367,-0.008,-35.156,71.167,54.138
0.370,1.252,-0.565,-49.866,45.593,55.481
0.721,1.494,-0.359,-39.185,39.612,64.819
0.792,1.370,-0.400,-32.654,40.283,85.449
0.722,1.210,-0.257,-28.625,49.805,118.347
0.666,0.894,-0.468,-41.016,45.898,142.517
0.411,1.037,-0.563,-56.824,34.912,159.546
0.813,1.151,-0.549,-72.449,19.043,167.297
0.675,1.333,-0.438,-82.397,18.616,169.250
0.764,1.387,-0.350,-85.632,26.428,174.744
0.440,1.431,-0.531,-98.877,36.438,194.519
0.430,1.707,-0.591,-100.403,47.424,215.332
1.009,1.803,-0.349,-104.309,57.312,227.844
1.273,1.874,-0.094,-106.750,68.542,239.929
1.162,1.780,-0.020,-97.595,82.520,243.591
0.983,1.560,0.085,-87.036,101.685,232.178
1.000,1.349,0.125,-83.923,118.408,207.642
1.124,1.392,0.178,-78.796,121.704,192.017
1.021,1.385,0.145,-68.726,114.075,176.819
1.069,1.397,0.095,-61.646,102.173,152.649
1.136,1.466,-0.013,-51.147,76.965,132.385
1.060,1.317,-0.118,-46.143,49.133,118.042
0.861,1.116,-0.135,-39.612,32.043,101.074
0.734,1.174,-0.138,-24.658,22.339,89.478
0.594,0.976,-0.186,-18.127,3.418,61.096
0.549,1.128,-0.268,-7.385,-15.808,43.823
0.334,0.963,-0.316,2.380,-14.893,21.851
0.102,0.771,-0.339,14.954,-10.010,-3.906
0.040,0.545,-0.362,31.372,-5.676,-27.161
0.003,0.383,-0.343,45.105,-8.301,-50.659
0.010,0.237,-0.331,60.791,-14.709,-79.163
0.015,0.224,-0.379,71.167,-11.963,-106.445
-0.155,0.260,-0.428,90.088,-11.353,-140.564
-0.181,0.270,-0.449,104.980,-27.893,-180.969
-0.133,0.383,-0.454,119.263,-37.170,-220.764
-0.115,0.393,-0.456,128.540,-38.879,-252.686
-0.076,0.397,-0.462,134.827,-37.537,-277.588
0.016,0.449,-0.442,142.151,-34.180,-298.462
0.051,0.496,-0.439,144.226,-32.471,-320.679
0.025,0.611,-0.464,143.311,-31.006,-345.764
0.034,0.715,-0.470,145.203,-41.931,-373.291
0.033,0.757,-0.397,148.132,-62.744,-409.973
0.005,0.739,-0.307,142.639,-91.736,-450.623
-0.253,0.777,-0.143,134.766,-145.325,-497.925
0.130,0.756,-0.079,126.099,-196.411,-503.357
1.579,1.275,-0.331,115.173,-170.227,-435.913
0.591,2.198,-0.779,152.283,-62.744,-357.361
-0.008,1.953,-0.557,144.348,17.273,-274.719
-0.196,1.974,-0.367,143.860,26.917,-233.643
-0.580,1.686,-0.318,125.000,-14.343,-241.760
-1.042,1.784,-0.469,89.172,-74.646,-284.058
-1.459,2.029,-0.747,59.448,-124.939,-321.655
-1.918,2.249,-0.990,37.781,-156.006,-337.952
-2.239,2.474,-1.057,26.062,-162.048,-323.853
-2.525,2.595,-1.292,28.625,-143.738,-277.588
-2.710,2.398,-1.679,38.635,-117.065,-211.609
-2.729,1.860,-1.910,37.598,-90.881,-134.583
-2.521,1.296,-2.055,20.325,-71.228,-76.965
-2.636,1.027,-1.889,-10.010,-51.331,-36.560
-2.697,1.175,-1.830,-13.916,-5.066,3.235
-2.721,0.553,-1.234,-24.658,-9.399,19.165
-2.548,1.068,-1.145,-20.386,-45.837,98.450
-2.289,0.641,-1.336,-35.889,-75.806,126.038
-1.813,0.542,-3.241,-95.520,-143.616,143.494
-0.264,1.026,-2.135,-190.369,-87.280,134.949
0.348,3.981,0.851,-169.128,55.786,141.479
-0.373,3.912,0.116,-163.147,61.096,239.441
0.876,2.627,-1.071,-162.720,52.673,269.409
-0.850,1.810,-2.299,-202.515,49.683,274.658
-2.990,2.717,-0.602,-148.071,79.895,248.840
-1.038,0.505,-0.046,-87.219,92.773,262.634
0.265,-0.641,0.083,-93.689,102.234,239.258
0.462,0.533,-0.667,-96.924,82.764,146.362
-0.274,1.679,-0.640,-109.009,38.330,86.121
-1.138,2.040,-1.004,-116.821,-3.357,92.468
-0.096,1.773,-0.333,-88.989,-23.621,114.136
0.471,1.114,-0.218,-64.636,-54.260,114.929
0.275,1.091,-0.200,-50.171,-106.018,105.408
-0.005,1.089,-0.815,-37.354,-178.589,108.887
-0.119,1.290,-0.970,-45.349,-241.577,130.005
-0.481,1.280,-0.660,-67.932,-263.367,174.072
-0.340,1.686,-1.411,-52.063,-203.186,230.103
-0.049,1.781,-1.327,-82.581,3.784,229.248
0.081,2.061,-1.315,-74.951,212.891,176.575
-0.224,1.589,-1.524,-82.886,335.632,93.079
-0.073,2.384,-0.245,-82.092,388.794,18.799
-0.085,2.183,-0.600,-51.514,394.775,-23.987
0.174,2.503,0.383,-8.789,389.832,-52.185
0.866,1.864,0.339,19.348,294.250,-30.945
0.141,1.780,0.203,-4.272,184.387,9.460
0.144,1.638,-0.163,-12.207,148.987,37.598
0.255,1.456,-0.326,-26.367,102.478,67.444
0.452,1.598,-0.112,-28.748,70.740,89.417
0.958,1.437,-0.243,-31.433,46.326,94.116
1.045,1.336,-0.124,-40.283,17.273,101.074
1.063,1.086,-0.327,-56.274,-10.925,111.633
0.610,1.041,-0.441,-64.697,-13.794,127.502
0.694,1.266,-0.561,-64.819,-4.944,141.907
0.665,1.391,-0.481,-72.388,8.484,155.884
0.601,1.573,-0.422,-73.486,23.376,164.062
0.535,1.388,-0.437,-86.609,33.203,182.983
0.009,1.539,-0.833,-98.511,42.175,194.702
-0.059,1.492,-0.793,-110.901,45.715,145.874
0.439,2.016,-0.616,-122.742,49.744,140.625
0.717,2.239,-0.419,-122.925,64.697,138.550
0.807,2.169,-0.405,-122.864,97.473,170.349
0.855,1.886,-0.244,-115.234,133.240,199.646
0.874,1.924,-0.210,-90.149,161.987,198.669
0.893,1.730,-0.071,-86.548,151.550,201.965
0.950,1.561,-0.176,-77.026,162.476,195.862
1.167,1.645,-0.188,-73.120,171.570,169.800
1.275,1.634,-0.172,-75.378,153.748,135.193
1.143,1.444,-0.104,-65.674,120.911,121.033
1.020,1.236,-0.002,-53.650,76.233,116.699
0.870,1.129,0.033,-38.086,34.180,111.755
0.776,1.070,-0.021,-18.250,10.803,93.201
0.717,0.875,-0.101,-7.874,-6.287,61.890
0.652,0.598,-0.170,-9.766,-30.273,21.179
0.420,0.547,-0.255,3.601,-38.513,-13.184
0.156,0.465,-0.208,42.664,-35.339,-21.973
0.127,0.222,-0.214,85.815,-21.179,-29.724
0.064,-0.115,-0.207,127.136,-26.428,-51.758
-0.011,-0.416,-0.199,138.428,-57.495,-94.727
0.053,-0.364,-0.223,133.850,-85.938,-153.442
0.157,-0.435,-0.224,119.080,-123.474,-216.187
0.195,-0.326,-0.220,121.155,-156.372,-263.733
0.158,-0.109,-0.216,148.743,-180.420,-307.312
0.182,0.118,-0.322,161.926,-180.725,-315.613
0.155,0.378,-0.425,171.448,-157.715,-307.373
0.106,0.318,-0.416,176.575,-131.897,-320.129
0.065,0.343,-0.440,172.302,-105.774,-334.290
0.108,0.549,-0.427,172.791,-68.054,-333.862
0.137,0.763,-0.386,187.195,-25.513,-326.965
0.217,0.824,-0.378,196.350,10.803,-314.575
0.390,0.774,-0.303,198.059,27.100,-309.570
0.250,0.768,-0.332,183.594,18.738,-322.998
0.065,0.912,-0.393,163.574,-5.066,-353.699
0.011,1.045,-0.397,139.343,-40.710,-374.146
-0.146,1.396,-0.420,121.826,-75.989,-393.005
-0.311,1.629,-0.524,113.525,-102.905,-385.986
-0.472,1.821,-0.624,105.103,-121.582,-375.244
-0.819,1.878,-0.780,90.637,-128.540,-372.559
-1.195,2.050,-0.984,80.261,-126.770,-346.069
-1.695,2.560,-1.164,68.787,-123.535,-333.618
-2.029,2.736,-1.420,47.119,-116.150,-324.402
-2.330,3.019,-1.572,32.593,-96.558,-284.119
-2.689,2.928,-1.769,30.151,-76.904,-226.624
-2.828,2.448,-1.901,30.151,-63.904,-157.166
-2.671,1.758,-2.101,18.188,-64.087,-91.125
-2.481,1.232,-2.136,-10.437,-65.247,-42.419
-2.708,1.084,-1.831,-38.330,-47.363,-0.427
-2.940,1.071,-1.503,-49.866,-23.193,46.509
-2.364,0.897,-1.362,-60.730,-13.245,88.562
-2.536,0.951,-1.337,-87.708,-17.029,126.465
-0.942,1.018,-2.377,-134.399,-44.800,160.950
1.934,1.648,0.128,-161.865,38.269,138.306
1.155,3.419,0.691,-144.836,105.896,180.359
-1.373,2.977,-0.126,-158.203,56.274,241.577

-1.698,2.109,-0.760,85.083,-130.676,-348.938
-1.967,2.242,-1.004,63.538,-164.978,-359.314
-2.287,2.579,-1.130,51.208,-188.904,-349.365
-2.400,2.790,-1.472,47.607,-182.007,-317.139
-2.590,2.831,-1.928,47.180,-162.354,-247.986
-2.731,2.370,-2.178,48.340,-140.564,-159.302
-2.594,1.628,-2.372,34.485,-126.465,-84.839
-2.530,1.056,-2.413,2.014,-114.197,-34.241
-2.478,0.891,-2.541,-29.297,-62.134,20.020
-2.837,0.853,-2.215,-40.833,-24.597,34.363
-3.009,0.933,-1.722,-59.570,-73.608,76.538
-2.300,0.986,-1.671,-38.696,-103.455,133.179
-2.132,0.644,-1.670,-68.420,-101.624,146.362
0.165,0.928,-1.672,-100.647,-59.265,136.902
3.705,1.383,0.797,-137.695,75.745,105.469
0.746,2.936,0.514,-153.320,142.334,160.645
-1.996,3.174,0.127,-152.039,83.801,262.268
-0.541,1.789,-2.260,-191.895,17.334,273.560
-0.725,2.007,-1.993,-222.046,1.648,248.901
-2.096,1.522,-1.349,-181.030,3.967,233.887
0.056,0.691,0.954,-121.521,58.105,219.421
-0.115,-0.120,-0.402,-129.028,88.013,187.622
-0.121,0.990,-0.852,-123.840,80.505,123.962
-0.275,1.218,-0.857,-129.639,35.889,91.431
-0.719,1.783,-0.750,-126.404,3.540,88.074
-0.145,1.615,-0.667,-80.994,-4.944,104.980
0.015,1.640,-0.096,-37.354,-19.348,116.394
0.353,1.427,-0.318,9.583,-55.298,141.602
-0.337,1.320,-1.183,-3.662,-99.182,194.580
-0.149,1.339,-0.794,-55.481,-154.907,239.319
-0.711,0.979,-0.790,-156.311,-245.911,314.941
-0.412,1.919,-0.086,-143.921,-292.725,391.968
0.362,1.328,-1.341,-92.773,-174.377,285.461
0.694,1.528,-1.776,-76.599,123.779,69.458
-0.874,1.657,-1.601,-138.306,379.089,-35.278
-0.127,2.379,-1.193,-76.050,469.360,-99.976
0.100,2.717,0.116,-21.851,485.779,-150.208
0.824,2.510,0.498,25.391,407.532,-133.179
0.394,2.128,0.693,11.963,259.705,-39.673
0.273,1.825,-0.066,8.240,187.500,32.654
-0.182,1.405,-0.187,-13.184,128.113,67.688
0.112,1.255,-0.431,-28.503,94.055,77.576
0.005,1.235,-0.325,-40.955,67.261,93.872
0.876,1.237,-0.251,-39.734,43.152,91.614
0.975,1.080,-0.176,-62.805,-8.057,91.980
0.974,1.185,-0.342,-63.293,-42.236,79.468
0.717,1.115,-0.259,-58.289,-63.721,65.979
0.461,1.125,-0.547,-65.857,-43.213,88.745
0.679,1.485,-0.634,-63.171,17.029,132.446
0.774,1.494,-0.406,-57.922,63.660,154.175
0.765,1.383,-0.294,-65.979,78.552,171.631
0.535,1.238,-0.422,-98.694,72.876,172.852
0.214,1.458,-0.673,-126.160,55.969,158.936
0.454,1.784,-0.618,-126.770,49.988,129.700
1.208,2.029,-0.557,-129.883,67.322,114.624
1.092,2.066,-0.198,-147.400,71.960,136.353
0.758,2.168,-0.348,-126.709,122.253,173.279
0.810,2.025,-0.034,-94.910,141.602,184.631
1.150,1.853,0.019,-100.708,126.648,195.496
1.263,1.742,-0.093,-103.333,131.897,153.259
1.312,1.585,-0.112,-106.750,136.353,99.121
1.354,1.647,-0.178,-105.591,108.948,64.758
1.268,1.396,-0.161,-104.858,56.458,33.936
1.053,1.135,-0.173,-77.942,16.113,23.254
0.845,1.075,-0.107,-27.466,5.188,65.369
0.581,1.261,-0.190,39.246,24.414,96.924
0.414,0.990,-0.192,82.336,43.213,95.093
0.327,0.823,-0.153,105.164,31.799,84.351
0.235,0.459,-0.080,108.948,-0.244,51.331
0.135,0.173,-0.087,104.248,-31.738,4.944
0.068,0.025,-0.077,103.455,-56.152,-40.039
0.088,-0.050,-0.143,112.610,-66.040,-92.285
0.011,-0.096,-0.242,121.277,-63.049,-144.836
-0.047,0.021,-0.326,125.549,-56.946,-182.922
-0.126,0.235,-0.349,141.663,-46.997,-208.313
-0.069,0.177,-0.367,154.114,-35.217,-230.774
0.084,0.190,-0.335,158.630,-28.809,-255.554
0.109,0.271,-0.336,163.147,-24.841,-280.457
0.082,0.320,-0.365,166.321,-19.226,-301.331
0.067,0.455,-0.373,167.847,-15.320,-318.359
0.074,0.568,-0.337,168.213,-14.221,-331.299
0.174,0.622,-0.326,172.852,-12.512,-327.332
0.282,0.769,-0.299,179.138,-8.057,-316.650
0.433,0.693,-0.311,182.434,-5.554,-308.899
0.402,0.908,-0.309,169.006,-10.132,-321.045
0.216,1.007,-0.259,139.404,-18.921,-362.488
0.135,1.218,-0.404,140.320,-25.513,-328.308
-0.280,1.520,-0.375,125.427,-32.593,-357.300
-0.500,1.759,-0.395,105.652,-52.368,-392.151
-0.568,1.786,-0.446,89.233,-80.261,-397.400
-0.748,1.858,-0.553,78.735,-110.229,-384.338
-1.065,1.865,-0.708,66.406,-133.972,-372.253
-1.450,2.092,-0.937,53.162,-144.409,-361.206
-1.761,2.434,-1.195,42.480,-135.864,-344.238
-2.093,2.834,-1.340,32.959,-111.511,-317.810
-2.572,2.950,-1.589,25.452,-90.942,-269.714
-2.987,2.522,-1.754,28.503,-87.463,-192.932
-2.788,1.712,-1.979,20.691,-102.234,-115.112
-2.639,1.089,-2.131,-11.475,-113.464,-58.472
-2.724,1.002,-2.084,-48.645,-113.525,-13.733
-3.273,1.092,-1.646,-58.838,-79.102,30.762
-3.375,0.982,-1.339,-62.439,-42.786,79.651
-2.852,0.773,-1.502,-79.529,-22.339,117.065
-2.421,1.012,-2.172,-127.136,-34.912,153.748
0.407,0.958,-2.234,-209.351,-16.663,145.325
2.820,3.401,1.547,-188.721,112.244,157.959
-1.242,3.812,-0.273,-159.180,90.454,236.023
-0.030,2.797,-1.336,-207.458,7.080,270.020
0.013,2.154,-1.647,-199.402,-10.315,282.593
-2.199,1.573,-2.282,-167.114,44.128,277.649
-1.274,0.346,-0.431,-83.740,100.586,230.286
0.269,-0.518,0.451,-59.998,94.482,229.858
0.005,0.122,-0.345,-101.563,56.458,160.278
-0.065,1.526,-0.706,-109.375,15.625,111.267
-1.039,1.835,-0.983,-119.995,-19.165,95.703
-0.244,1.713,-0.812,-103.760,-28.320,89.844
