aX,aY,aZ,gX,gY,gZ
0.096,0.953,-0.249,-0.488,0.244,-1.038
0.095,0.952,-0.250,-0.732,0.366,-0.977
0.093,0.955,-0.248,-0.732,0.610,-1.160
0.095,0.953,-0.246,-0.732,0.488,-1.160
0.096,0.951,-0.246,-0.977,0.610,-1.221
0.097,0.952,-0.247,-0.854,0.488,-1.221
0.096,0.953,-0.247,-0.916,0.488,-1.221
0.096,0.953,-0.247,-1.038,0.610,-1.221
0.097,0.954,-0.249,-1.221,0.610,-1.099
0.098,0.952,-0.249,-1.099,0.732,-1.099
0.098,0.952,-0.250,-1.160,0.854,-1.160
0.098,0.954,-0.253,-1.099,0.793,-0.916
0.098,0.954,-0.252,-1.038,0.732,-0.977
0.098,0.954,-0.251,-0.916,0.610,-0.793
0.099,0.954,-0.251,-1.099,0.610,-0.916
0.100,0.954,-0.252,-1.038,0.549,-0.916
0.099,0.953,-0.253,-1.038,0.488,-0.854
0.098,0.953,-0.254,-0.793,0.427,-0.732
0.098,0.954,-0.253,-0.671,0.488,-0.671
0.097,0.953,-0.253,-0.732,0.427,-0.610
0.098,0.952,-0.251,-0.732,0.366,-0.732
0.099,0.953,-0.250,-0.610,0.305,-0.732
0.098,0.954,-0.251,-0.671,0.427,-0.671
0.097,0.954,-0.250,-0.610,0.183,-0.671
0.095,0.953,-0.250,-0.610,0.061,-0.732
0.096,0.954,-0.249,-0.549,0.122,-0.732
0.095,0.953,-0.249,-0.549,0.305,-0.671
0.096,0.953,-0.249,-0.549,0.061,-0.793
0.097,0.953,-0.249,-0.366,0.061,-0.793
0.097,0.952,-0.250,-0.549,0.366,-0.671
0.097,0.954,-0.251,-0.610,0.061,-0.732
0.096,0.954,-0.248,-0.610,0.244,-0.732
0.095,0.954,-0.246,-0.732,0.427,-0.977
0.096,0.952,-0.247,-0.793,0.305,-0.916
0.096,0.954,-0.248,-0.610,0.427,-0.916
0.095,0.953,-0.249,-0.671,0.305,-0.793
0.096,0.954,-0.249,-0.793,0.427,-0.916
0.096,0.954,-0.249,-0.671,0.610,-0.854
0.097,0.952,-0.249,-0.793,0.488,-0.977
0.098,0.951,-0.249,-0.610,0.427,-1.099
0.095,0.952,-0.249,-0.854,0.305,-0.916
0.095,0.954,-0.250,-0.732,0.427,-0.916
0.095,0.955,-0.249,-0.610,0.610,-0.916
0.096,0.954,-0.250,-0.732,0.549,-1.099
0.099,0.955,-0.250,-0.916,0.549,-0.916
0.099,0.955,-0.249,-0.732,0.183,-0.854
0.099,0.953,-0.248,-0.732,0.427,-0.916
0.099,0.951,-0.250,-0.793,0.366,-1.038
0.097,0.954,-0.249,-0.610,0.427,-0.854
0.097,0.955,-0.248,-0.549,0.427,-0.916
0.096,0.956,-0.250,-0.671,0.549,-0.793
0.097,0.955,-0.250,-0.671,0.366,-0.793
0.097,0.954,-0.250,-0.549,0.305,-0.854
0.095,0.953,-0.250,-0.427,0.488,-0.854
0.096,0.953,-0.249,-0.427,0.427,-0.732
0.098,0.954,-0.248,-0.549,0.366,-0.977
0.097,0.953,-0.246,-0.671,0.244,-0.977
0.097,0.954,-0.248,-0.671,0.488,-1.038
0.096,0.954,-0.248,-0.549,0.549,-1.038
0.096,0.953,-0.249,-0.732,0.610,-1.038
0.097,0.953,-0.249,-0.732,0.671,-0.977
0.098,0.952,-0.249,-0.671,0.427,-0.916
0.097,0.953,-0.248,-0.610,0.549,-1.038
0.097,0.953,-0.248,-0.671,0.366,-1.038
0.097,0.954,-0.249,-0.671,0.244,-1.099
0.098,0.954,-0.250,-0.732,0.305,-0.977
0.097,0.953,-0.251,-0.549,0.183,-1.038
0.098,0.953,-0.250,-0.488,0.366,-1.038
0.098,0.954,-0.250,-0.366,0.488,-1.160
0.096,0.954,-0.249,-0.549,0.488,-0.854
0.098,0.953,-0.247,-0.610,0.488,-0.977
0.098,0.953,-0.247,-0.488,0.549,-0.793
0.098,0.954,-0.247,-0.427,0.427,-0.916
0.099,0.954,-0.247,-0.793,0.366,-1.099
0.098,0.953,-0.247,-0.793,0.366,-0.977
0.098,0.954,-0.248,-0.549,0.305,-0.793
0.097,0.953,-0.248,-0.732,0.610,-0.854
0.095,0.953,-0.246,-0.916,0.549,-0.854
0.096,0.955,-0.245,-0.854,0.610,-0.732
0.097,0.955,-0.244,-0.793,0.610,-0.854
0.097,0.954,-0.245,-0.916,0.610,-0.977
0.098,0.953,-0.246,-0.854,0.549,-0.916
0.097,0.954,-0.247,-1.099,0.671,-0.977
0.099,0.952,-0.247,-1.038,0.732,-0.977
0.096,0.953,-0.246,-1.221,0.610,-0.854
0.095,0.954,-0.246,-1.343,0.977,-0.977
0.097,0.954,-0.246,-1.343,1.038,-0.977
0.099,0.955,-0.248,-1.099,0.793,-0.916
0.099,0.954,-0.248,-1.038,0.793,-0.977
0.098,0.953,-0.249,-1.038,0.854,-0.916
0.099,0.953,-0.251,-1.038,0.793,-0.916
0.100,0.955,-0.252,-1.099,0.671,-0.854
0.099,0.954,-0.252,-1.099,0.610,-0.854
0.101,0.957,-0.253,-0.854,0.793,-0.854
0.102,0.957,-0.254,-0.549,0.854,-0.671
0.104,0.954,-0.252,-0.427,0.610,-0.488
0.101,0.951,-0.251,-0.549,0.671,-0.427
0.098,0.952,-0.251,-0.732,0.549,-0.549
0.093,0.954,-0.250,-0.366,0.610,-0.549
0.091,0.955,-0.248,-0.244,0.793,-0.488
0.096,0.956,-0.247,-0.427,0.854,-0.366
0.100,0.956,-0.245,-0.488,0.671,-0.183
0.102,0.956,-0.245,-0.366,0.732,-0.305
0.099,0.954,-0.246,-0.671,0.549,-0.427
0.096,0.954,-0.246,-0.854,0.488,-0.488
0.092,0.953,-0.245,-0.793,0.732,-0.488
0.091,0.951,-0.242,-0.854,0.671,-0.488
0.093,0.951,-0.245,-0.977,0.732,-0.610
0.094,0.952,-0.247,-1.038,0.671,-0.732
0.094,0.954,-0.249,-0.977,0.732,-0.977
0.095,0.955,-0.249,-0.916,0.732,-0.977
0.095,0.955,-0.248,-0.916,0.793,-1.160
0.096,0.953,-0.247,-0.793,0.610,-1.099
0.096,0.953,-0.244,-0.916,0.732,-1.160
0.096,0.954,-0.244,-0.916,0.671,-1.221
0.098,0.955,-0.246,-1.038,0.671,-1.343
0.099,0.955,-0.249,-1.038,0.549,-1.221
0.098,0.953,-0.249,-1.038,0.610,-1.343
0.099,0.953,-0.250,-0.977,0.610,-1.343
0.099,0.952,-0.250,-0.916,0.610,-1.221
0.099,0.953,-0.251,-0.916,0.610,-1.160
0.101,0.954,-0.250,-1.221,0.671,-1.160
0.101,0.954,-0.250,-0.793,0.854,-1.099
0.101,0.955,-0.249,-0.793,0.671,-0.854
0.100,0.955,-0.249,-0.854,0.671,-0.732
0.099,0.954,-0.250,-0.793,0.610,-0.610
0.099,0.954,-0.250,-0.793,0.610,-0.732
0.098,0.954,-0.251,-0.732,0.671,-0.793
0.099,0.953,-0.250,-0.671,0.549,-0.549
0.099,0.953,-0.249,-0.671,0.549,-0.732
0.097,0.954,-0.248,-0.732,0.610,-0.793
0.095,0.954,-0.246,-0.488,0.732,-0.610
0.095,0.954,-0.246,-0.671,0.732,-0.610
0.095,0.956,-0.245,-0.793,0.732,-0.793
0.097,0.954,-0.245,-0.977,0.793,-0.793
0.097,0.954,-0.244,-0.854,0.732,-0.732
0.096,0.953,-0.245,-0.977,0.488,-0.854
0.096,0.953,-0.246,-1.160,0.610,-0.977
0.096,0.954,-0.247,-1.099,0.610,-0.793
0.097,0.956,-0.248,-1.282,0.610,-0.732
0.097,0.953,-0.250,-0.977,0.793,-0.854
0.097,0.954,-0.250,-1.160,0.854,-0.977
0.097,0.954,-0.250,-1.221,0.732,-0.977
0.098,0.954,-0.250,-1.099,0.671,-0.916
0.099,0.955,-0.251,-0.732,0.793,-0.793
0.099,0.957,-0.251,-0.854,0.671,-0.916
0.099,0.954,-0.250,-0.732,0.610,-0.793
0.098,0.952,-0.250,-0.854,0.549,-0.732
0.096,0.953,-0.249,-0.854,0.610,-0.732
0.097,0.954,-0.250,-0.549,0.549,-0.610
0.099,0.954,-0.250,-0.427,0.610,-0.610
0.099,0.953,-0.249,-0.732,0.549,-0.671
0.099,0.953,-0.249,-0.793,0.610,-0.854
0.096,0.954,-0.249,-0.549,0.488,-0.793
0.091,0.954,-0.249,-0.732,0.488,-0.916
0.094,0.955,-0.247,-0.488,0.793,-0.916
0.098,0.956,-0.246,-0.366,0.854,-0.793
0.103,0.957,-0.246,-0.793,0.854,-0.854
0.101,0.955,-0.247,-0.732,0.610,-0.732
0.099,0.954,-0.248,-0.854,0.549,-0.854
0.095,0.952,-0.248,-0.793,0.610,-0.671
0.094,0.952,-0.248,-0.793,0.732,-0.732
0.095,0.953,-0.247,-0.671,0.671,-0.732
0.094,0.955,-0.247,-0.793,0.610,-0.854
0.095,0.955,-0.247,-0.671,0.793,-0.854
0.097,0.955,-0.248,-0.916,0.793,-0.793
0.097,0.955,-0.247,-0.854,0.854,-0.793
0.098,0.954,-0.247,-0.854,0.610,-0.977
0.099,0.952,-0.247,-1.038,0.549,-0.916
0.097,0.951,-0.247,-1.160,0.610,-1.038
0.097,0.954,-0.248,-0.977,0.549,-0.977
0.097,0.954,-0.247,-0.977,0.671,-0.916
0.098,0.954,-0.248,-0.977,0.793,-0.793
0.099,0.954,-0.249,-1.038,0.610,-0.916
0.097,0.952,-0.249,-0.977,0.793,-0.793
0.096,0.953,-0.250,-1.099,0.793,-0.977
0.098,0.953,-0.248,-1.099,0.854,-0.977
0.100,0.953,-0.248,-0.977,0.854,-1.038
0.098,0.954,-0.248,-0.854,0.732,-1.038
0.096,0.953,-0.249,-0.732,0.610,-0.854
0.097,0.955,-0.249,-0.793,0.549,-0.854
0.097,0.954,-0.248,-0.854,0.549,-0.854
0.098,0.953,-0.249,-0.610,0.732,-0.854
0.098,0.953,-0.249,-0.732,0.610,-0.793
0.099,0.953,-0.248,-0.854,0.671,-0.793
0.098,0.954,-0.249,-0.793,0.610,-0.916
0.097,0.955,-0.248,-0.671,0.488,-0.732
0.097,0.954,-0.248,-0.793,0.732,-0.732
0.099,0.955,-0.247,-0.854,0.671,-0.732
0.099,0.954,-0.250,-0.549,0.610,-0.671
0.099,0.953,-0.249,-0.671,0.732,-0.549
0.098,0.954,-0.250,-0.793,0.549,-0.671
0.098,0.955,-0.248,-0.671,0.488,-0.793
0.096,0.954,-0.249,-0.793,0.549,-0.793
0.096,0.954,-0.247,-0.427,0.549,-0.549
0.097,0.953,-0.248,-0.427,0.549,-0.671
0.096,0.953,-0.248,-0.488,0.427,-0.793
0.097,0.954,-0.248,-0.488,0.610,-0.793
0.096,0.954,-0.247,-0.549,0.488,-0.732
0.096,0.954,-0.246,-0.793,0.671,-0.671
0.096,0.956,-0.245,-0.671,0.427,-0.916
0.097,0.953,-0.245,-0.977,0.549,-0.977
0.097,0.952,-0.246,-0.977,0.671,-1.038
0.095,0.953,-0.246,-0.793,0.671,-0.854
0.096,0.953,-0.246,-1.099,0.610,-0.977
0.097,0.954,-0.247,-1.160,0.610,-1.099
0.098,0.953,-0.247,-0.916,0.671,-0.977
0.097,0.952,-0.248,-1.038,0.610,-0.916
0.097,0.954,-0.249,-1.038,0.549,-0.977
0.096,0.954,-0.250,-0.793,0.549,-0.854
0.096,0.953,-0.250,-0.916,0.671,-1.160
0.097,0.952,-0.248,-0.854,0.854,-1.038
0.101,0.956,-0.249,-0.671,0.732,-0.977
0.102,0.957,-0.249,-0.671,0.671,-0.854
0.102,0.955,-0.250,-0.977,0.549,-0.732
0.098,0.954,-0.250,-0.916,0.488,-0.793
0.096,0.954,-0.249,-0.732,0.610,-0.671
0.095,0.953,-0.247,-0.854,0.854,-0.671
0.096,0.954,-0.247,-0.732,0.916,-0.793
0.097,0.955,-0.247,-0.671,0.793,-0.732
0.098,0.955,-0.247,-0.793,0.793,-0.732
0.097,0.955,-0.246,-0.793,0.793,-0.610
0.097,0.955,-0.246,-0.916,0.793,-0.610
0.098,0.954,-0.247,-1.038,0.732,-0.671
0.098,0.953,-0.248,-1.038,0.854,-0.793
0.097,0.953,-0.248,-0.977,0.671,-0.732
0.097,0.953,-0.249,-0.854,0.671,-0.854
0.096,0.954,-0.250,-0.916,0.732,-0.854
0.098,0.954,-0.250,-0.977,0.793,-0.854
0.098,0.954,-0.250,-0.854,0.671,-0.793
0.099,0.953,-0.249,-0.732,0.671,-0.793
0.098,0.953,-0.248,-0.732,0.732,-0.916
0.097,0.954,-0.249,-0.610,0.610,-0.793
0.098,0.954,-0.248,-0.671,0.610,-0.793
0.097,0.953,-0.250,-0.732,0.488,-0.793
0.097,0.954,-0.249,-0.671,0.427,-0.854
0.097,0.954,-0.249,-0.610,0.427,-0.793
0.097,0.954,-0.249,-0.549,0.366,-0.732

0.099,0.953,-0.246,-1.282,0.793,-1.099
0.099,0.952,-0.245,-1.282,0.732,-0.916
0.097,0.954,-0.245,-1.282,0.793,-1.160
0.099,0.955,-0.246,-1.404,0.488,-1.160
0.099,0.954,-0.247,-1.465,0.549,-0.977
0.099,0.954,-0.247,-1.160,0.671,-1.160
0.098,0.952,-0.247,-1.221,0.671,-1.282
0.096,0.951,-0.248,-1.099,0.854,-1.099
0.098,0.953,-0.249,-0.977,0.854,-1.099
0.100,0.955,-0.250,-0.916,0.549,-1.038
0.101,0.956,-0.249,-0.916,0.366,-1.099
0.100,0.955,-0.250,-0.916,0.244,-1.160
0.100,0.955,-0.250,-0.793,0.366,-0.916
0.099,0.953,-0.251,-0.488,0.244,-0.854
0.100,0.951,-0.251,-0.366,0.000,-0.916
0.099,0.954,-0.251,-0.366,0.000,-0.916
0.097,0.955,-0.249,-0.366,0.061,-0.916
0.097,0.956,-0.246,-0.244,0.183,-0.854
0.099,0.955,-0.245,-0.122,0.305,-0.793
0.098,0.954,-0.245,0.000,0.000,-0.793
0.097,0.952,-0.245,-0.122,0.122,-0.793
0.098,0.954,-0.245,-0.183,0.366,-0.916
0.099,0.956,-0.242,-0.366,0.610,-0.854
0.101,0.958,-0.239,-0.488,0.671,-0.610
0.100,0.957,-0.239,-0.732,0.610,-0.549
0.099,0.955,-0.240,-0.732,0.549,-0.488
0.097,0.953,-0.241,-0.916,0.427,-0.549
0.097,0.951,-0.243,-1.221,0.488,-0.610
0.097,0.953,-0.245,-1.587,0.305,-0.671
0.096,0.954,-0.245,-1.404,0.610,-0.610
0.096,0.954,-0.245,-1.160,0.732,-0.671
0.096,0.954,-0.246,-1.404,0.854,-0.793
0.093,0.951,-0.244,-1.465,0.610,-1.038
0.095,0.955,-0.245,-1.648,0.732,-1.099
0.097,0.955,-0.245,-1.587,0.854,-0.977
0.098,0.954,-0.247,-1.465,0.916,-0.977
0.099,0.957,-0.247,-1.160,0.793,-0.977
0.096,0.950,-0.248,-1.221,0.488,-1.038
0.096,0.953,-0.248,-1.038,0.305,-1.160
0.093,0.952,-0.247,-1.099,0.305,-1.282
0.094,0.953,-0.248,-1.221,0.549,-1.160
0.095,0.956,-0.248,-1.160,0.427,-1.099
0.100,0.955,-0.248,-0.854,0.427,-1.221
0.101,0.956,-0.249,-0.916,0.549,-1.099
0.099,0.954,-0.248,-0.854,0.671,-1.221
0.097,0.953,-0.245,-0.793,0.732,-1.099
0.098,0.955,-0.244,-0.854,0.610,-0.977
0.098,0.958,-0.242,-1.038,0.671,-1.099
0.100,0.958,-0.241,-0.916,0.732,-1.160
0.100,0.957,-0.242,-1.099,0.793,-1.160
0.100,0.953,-0.243,-1.160,0.732,-1.099
0.096,0.951,-0.245,-1.465,0.610,-1.099
0.094,0.949,-0.247,-1.526,0.427,-1.221
0.093,0.949,-0.247,-1.465,0.610,-1.282
0.093,0.951,-0.247,-1.526,0.793,-1.404
0.093,0.953,-0.244,-1.648,1.221,-1.404
0.096,0.955,-0.241,-1.770,1.404,-1.465
0.100,0.959,-0.240,-2.014,1.343,-1.526
0.103,0.958,-0.240,-2.014,1.221,-1.404
0.104,0.958,-0.241,-2.197,1.038,-1.221
0.101,0.957,-0.242,-2.197,1.160,-1.221
0.099,0.955,-0.244,-2.197,1.526,-1.099
0.098,0.952,-0.245,-2.075,1.465,-0.854
0.098,0.954,-0.246,-2.258,1.709,-0.916
0.099,0.954,-0.246,-2.197,1.831,-0.854
0.102,0.958,-0.249,-2.136,1.587,-0.854
0.103,0.958,-0.253,-1.953,1.465,-0.671
0.101,0.957,-0.254,-1.648,1.038,-0.488
0.101,0.951,-0.259,-1.465,0.610,-0.366
0.100,0.949,-0.264,-1.526,0.610,-0.488
0.101,0.947,-0.265,-1.282,0.549,-0.427
0.099,0.949,-0.264,-0.977,0.610,-0.427
0.099,0.954,-0.262,-1.160,0.610,-0.488
0.099,0.957,-0.257,-0.610,0.671,-0.549
0.099,0.957,-0.254,-0.305,0.549,-0.427
0.099,0.957,-0.254,-0.061,0.610,-0.366
0.101,0.952,-0.254,-0.061,0.183,-0.427
0.099,0.952,-0.254,-0.061,0.183,-0.366
0.097,0.951,-0.252,-0.061,0.061,-0.427
0.095,0.950,-0.250,-0.183,0.244,-0.488
0.094,0.950,-0.248,-0.122,0.244,-0.732
0.094,0.953,-0.246,-0.366,0.366,-0.793
0.097,0.953,-0.246,-0.427,0.244,-0.854
0.095,0.953,-0.244,-0.549,0.366,-0.854
0.095,0.954,-0.243,-0.549,0.366,-1.099
0.097,0.955,-0.244,-0.610,0.671,-1.160
0.098,0.955,-0.244,-0.610,0.488,-1.038
0.097,0.957,-0.247,-1.038,0.427,-1.099
0.095,0.965,-0.248,-0.916,0.427,-1.160
0.091,0.938,-0.244,-1.465,0.610,-1.221
0.091,0.974,-0.247,-1.343,1.099,-1.343
0.094,0.942,-0.240,-1.099,1.282,-1.465
0.094,0.936,-0.240,-1.526,0.977,-1.648
0.090,0.952,-0.243,-1.587,1.343,-1.831
0.093,0.947,-0.244,-1.831,1.526,-1.770
0.102,0.951,-0.244,-1.892,1.465,-1.404
0.113,0.961,-0.246,-2.197,1.038,-1.282
0.120,0.963,-0.251,-2.258,0.427,-0.977
0.116,0.964,-0.259,-2.014,0.244,-0.488
0.103,0.965,-0.262,-1.831,0.549,-0.366
0.098,0.957,-0.265,-1.282,0.916,-0.244
0.095,0.949,-0.265,-0.916,1.282,-0.366
0.091,0.947,-0.260,-0.549,1.282,-0.671
0.090,0.947,-0.256,-0.305,1.282,-1.160
0.089,0.951,-0.252,-0.122,1.282,-1.282
0.093,0.957,-0.250,0.427,0.793,-1.282
0.100,0.959,-0.250,0.854,-0.244,-1.221
0.102,0.962,-0.251,1.038,-1.099,-1.160
0.102,0.958,-0.249,1.160,-1.526,-1.099
0.102,0.956,-0.253,1.282,-1.526,-1.099
0.101,0.954,-0.251,1.404,-1.343,-0.732
0.097,0.950,-0.249,1.160,-1.160,-0.732
0.096,0.951,-0.247,0.916,-0.488,-0.916
0.093,0.952,-0.240,0.610,0.183,-0.977
0.093,0.954,-0.233,0.122,0.610,-0.916
0.094,0.954,-0.228,-0.427,1.221,-0.671
0.098,0.955,-0.225,-1.282,1.526,-0.732
0.103,0.950,-0.222,-2.319,1.709,-0.610
0.105,0.948,-0.220,-3.235,1.892,-0.488
0.102,0.950,-0.221,-4.333,2.319,-0.366
0.097,0.953,-0.222,-5.005,2.747,-0.244
0.095,0.953,-0.222,-5.615,3.296,-0.244
0.089,0.950,-0.227,-6.287,3.784,-0.244
0.085,0.949,-0.235,-6.836,4.517,-0.671
0.083,0.950,-0.245,-6.775,5.127,-0.854
0.088,0.955,-0.253,-6.653,5.249,-0.854
0.104,0.946,-0.266,-6.958,4.211,-1.099
0.104,0.953,-0.267,-6.470,3.296,-1.465
0.096,0.958,-0.273,-5.737,2.380,-1.770
0.092,0.956,-0.277,-5.005,1.831,-1.953
0.096,0.954,-0.286,-3.967,1.038,-2.136
0.096,0.952,-0.290,-2.747,0.366,-2.136
0.098,0.951,-0.296,-1.465,-0.122,-2.136
0.100,0.951,-0.298,-0.244,-0.427,-2.014
0.105,0.953,-0.297,0.854,-0.610,-1.892
0.111,0.954,-0.292,1.953,-0.793,-1.831
0.116,0.955,-0.285,2.747,-1.404,-1.343
0.118,0.956,-0.278,3.235,-1.953,-1.099
0.108,0.954,-0.271,3.418,-2.014,-0.793
0.105,0.957,-0.263,3.906,-1.648,-0.488
0.105,0.955,-0.258,4.089,-1.587,-0.122
0.107,0.951,-0.251,3.784,-1.770,0.122
0.107,0.953,-0.246,3.662,-1.892,0.610
0.103,0.953,-0.242,3.174,-1.343,0.916
0.100,0.954,-0.237,2.808,-1.160,0.916
0.098,0.951,-0.233,2.380,-1.038,0.610
0.095,0.954,-0.233,1.831,-0.793,0.488
0.089,0.954,-0.233,1.282,-0.427,0.610
0.087,0.954,-0.232,0.977,-0.122,0.488
0.090,0.953,-0.232,0.427,0.427,0.244
0.093,0.953,-0.232,0.000,0.366,0.122
0.093,0.952,-0.233,-0.427,0.488,-0.305
0.091,0.951,-0.234,-0.916,0.488,-0.549
0.087,0.950,-0.235,-1.221,0.671,-0.854
0.085,0.950,-0.236,-1.526,0.671,-1.099
0.087,0.951,-0.239,-1.892,0.916,-1.343
0.091,0.953,-0.242,-2.319,0.977,-1.587
0.096,0.953,-0.246,-2.441,0.916,-1.709
0.097,0.954,-0.250,-2.319,0.793,-1.709
0.097,0.953,-0.252,-2.502,0.610,-1.892
0.097,0.953,-0.254,-2.502,0.671,-1.892
0.098,0.952,-0.254,-2.380,0.732,-1.831
0.100,0.953,-0.254,-2.075,0.854,-1.648
0.102,0.954,-0.256,-1.892,0.793,-1.831
0.104,0.955,-0.257,-1.770,0.793,-1.648
0.106,0.955,-0.259,-1.587,0.488,-1.404
0.107,0.955,-0.259,-1.404,0.305,-1.221
0.106,0.953,-0.260,-0.977,0.183,-0.916
0.105,0.954,-0.262,-0.610,0.061,-0.671
0.104,0.954,-0.263,-0.366,0.000,-0.366
0.104,0.954,-0.262,0.000,0.061,-0.366
0.103,0.953,-0.262,0.305,0.122,-0.305
0.103,0.954,-0.260,0.671,0.244,-0.244
0.101,0.953,-0.258,0.916,0.183,-0.061
0.100,0.953,-0.256,0.977,-0.061,0.122
0.098,0.954,-0.252,1.038,-0.061,0.061
0.099,0.952,-0.251,1.099,-0.183,0.061
0.096,0.954,-0.248,1.160,-0.061,-0.244
0.094,0.954,-0.246,1.099,-0.183,-0.244
0.094,0.955,-0.244,1.099,-0.305,-0.244
0.094,0.953,-0.243,0.854,-0.244,-0.244
0.095,0.952,-0.241,0.549,-0.366,-0.427
0.094,0.953,-0.242,0.427,-0.427,-0.671
0.092,0.951,-0.242,0.244,-0.366,-0.671
0.093,0.953,-0.240,0.122,-0.183,-0.854
0.093,0.953,-0.240,0.000,-0.244,-1.099
0.094,0.954,-0.240,-0.366,-0.122,-1.160
0.095,0.953,-0.241,-0.488,0.122,-1.221
0.095,0.953,-0.240,-0.793,0.183,-1.343
0.096,0.953,-0.241,-0.916,0.305,-1.343
0.097,0.954,-0.242,-1.038,0.244,-1.343
0.099,0.953,-0.243,-0.977,0.122,-1.221
0.099,0.953,-0.244,-1.282,0.183,-1.343
0.099,0.954,-0.246,-1.099,0.427,-1.282
0.099,0.954,-0.247,-1.221,0.366,-1.343
0.099,0.953,-0.250,-1.282,0.549,-1.282
0.100,0.955,-0.249,-1.282,0.305,-1.221
0.101,0.955,-0.251,-0.916,0.244,-0.977
0.102,0.953,-0.252,-0.854,0.244,-0.854
0.100,0.954,-0.252,-0.732,0.366,-0.793
0.101,0.955,-0.253,-0.732,0.183,-0.793
0.102,0.956,-0.253,-0.427,0.244,-0.793
0.101,0.953,-0.252,-0.183,0.183,-0.793
0.101,0.955,-0.249,0.000,0.244,-0.610
0.102,0.958,-0.250,0.061,0.122,-0.610
0.102,0.957,-0.248,0.000,0.122,-0.549
0.101,0.955,-0.247,-0.061,-0.061,-0.549
0.098,0.954,-0.245,-0.061,-0.061,-0.366
0.098,0.953,-0.245,-0.061,0.122,-0.366
0.096,0.953,-0.242,-0.061,0.305,-0.488
0.096,0.954,-0.242,0.000,0.305,-0.549
0.095,0.954,-0.243,-0.061,0.305,-0.610
0.096,0.955,-0.242,-0.488,0.427,-0.732
0.094,0.954,-0.242,-0.549,0.488,-0.793
0.095,0.955,-0.242,-0.671,0.610,-0.793
0.095,0.954,-0.241,-0.610,0.488,-0.916
0.096,0.953,-0.242,-0.610,0.549,-0.977
0.096,0.953,-0.243,-0.793,0.549,-1.038
0.097,0.955,-0.244,-1.099,0.549,-1.221
0.098,0.953,-0.245,-0.854,0.488,-1.160
0.099,0.956,-0.246,-0.732,0.305,-1.099
0.099,0.955,-0.246,-1.160,0.305,-1.282
0.099,0.955,-0.247,-0.977,0.366,-1.160
0.098,0.953,-0.248,-0.916,0.305,-1.099
0.099,0.955,-0.248,-0.732,0.366,-1.160
0.099,0.954,-0.248,-0.671,0.427,-1.221
0.101,0.955,-0.248,-0.732,0.427,-1.099
0.100,0.955,-0.247,-0.671,0.427,-0.854
0.101,0.954,-0.247,-0.671,0.305,-1.038
0.100,0.955,-0.245,-0.549,0.305,-1.038
0.100,0.957,-0.247,-0.549,0.305,-1.038
0.099,0.954,-0.246,-0.366,0.122,-0.854
0.100,0.955,-0.245,-0.305,0.122,-0.732
0.100,0.955,-0.245,-0.427,-0.122,-0.793
0.099,0.954,-0.243,-0.305,0.061,-0.671
0.101,0.953,-0.245,-0.305,0.000,-0.671
0.099,0.957,-0.244,-0.671,0.183,-0.793
0.097,0.955,-0.244,-0.549,0.244,-0.671

0.169,0.942,-0.190,-2.014,2.869,-0.549
0.150,0.952,-0.193,-2.319,2.808,-1.099
0.146,0.950,-0.194,-2.136,3.296,-1.465
0.160,0.954,-0.192,-1.770,3.601,-1.709
0.177,0.948,-0.194,-1.831,3.296,-1.770
0.181,0.942,-0.203,-2.136,2.502,-1.892
0.169,0.947,-0.206,-2.380,2.014,-2.258
0.159,0.957,-0.204,-2.136,2.319,-2.319
0.160,0.958,-0.197,-1.892,2.686,-2.258
0.177,0.954,-0.194,-1.831,2.747,-2.197
0.189,0.950,-0.194,-1.770,2.075,-1.831
0.187,0.941,-0.197,-2.136,1.770,-1.831
0.175,0.945,-0.194,-2.014,1.648,-1.648
0.177,0.948,-0.196,-2.075,1.343,-1.343
0.175,0.954,-0.197,-2.197,1.343,-1.221
0.165,0.949,-0.191,-2.014,1.343,-1.221
0.163,0.950,-0.190,-2.014,1.831,-1.160
0.173,0.959,-0.196,-2.136,1.587,-1.038
0.187,0.958,-0.202,-2.136,1.160,-1.038
0.187,0.957,-0.206,-2.258,0.732,-0.793
0.176,0.954,-0.204,-1.953,0.549,-0.610
0.171,0.950,-0.207,-1.770,0.244,-0.854
0.168,0.959,-0.208,-1.648,0.305,-1.099
0.156,0.963,-0.204,-1.465,0.671,-0.916
0.157,0.950,-0.194,-1.343,0.977,-0.793
0.175,0.941,-0.194,-1.465,0.793,-0.610
0.185,0.946,-0.196,-1.709,0.183,-0.671
0.174,0.957,-0.193,-2.075,0.305,-0.671
0.167,0.969,-0.187,-1.953,0.671,-0.549
0.173,0.974,-0.186,-1.892,0.549,-0.244
0.187,0.961,-0.190,-2.014,-0.366,0.061
0.193,0.964,-0.200,-2.380,-1.770,0.305
0.181,0.975,-0.203,-2.686,-2.441,0.122
0.159,0.977,-0.202,-2.625,-1.709,0.000
0.149,0.974,-0.198,-2.014,-0.366,-0.061
0.150,0.973,-0.200,-1.465,1.099,-0.305
0.153,0.970,-0.199,-0.793,2.258,0.000
0.171,0.955,-0.203,-0.366,2.808,0.183
0.174,0.943,-0.203,-0.488,2.991,0.000
0.168,0.939,-0.202,-0.366,3.052,-0.122
0.158,0.933,-0.204,-0.183,3.540,-0.427
0.153,0.942,-0.204,-0.122,3.784,-0.854
0.148,0.944,-0.206,0.366,4.333,-1.099
0.138,0.943,-0.206,0.977,5.005,-1.465
0.140,0.946,-0.205,1.343,5.798,-1.892
0.150,0.949,-0.205,1.648,6.409,-2.136
0.167,0.946,-0.205,2.014,6.775,-2.563
0.180,0.943,-0.212,2.136,6.042,-2.930
0.174,0.947,-0.216,2.197,5.249,-3.113
0.166,0.949,-0.217,2.563,5.066,-3.113
0.159,0.946,-0.216,3.113,5.676,-3.113
0.160,0.950,-0.214,3.662,6.165,-3.174
0.173,0.951,-0.211,3.906,6.104,-3.174
0.184,0.947,-0.209,4.150,5.676,-3.052
0.184,0.945,-0.205,4.578,4.944,-2.869
0.188,0.948,-0.199,5.005,4.211,-2.441
0.188,0.942,-0.199,4.822,3.540,-2.319
0.178,0.942,-0.199,4.761,3.113,-2.014
0.163,0.942,-0.199,5.127,3.723,-1.953
0.162,0.951,-0.200,5.249,4.700,-1.953
0.166,0.957,-0.194,5.737,5.615,-1.648
0.180,0.955,-0.190,6.287,5.859,-1.282
0.192,0.949,-0.187,6.226,5.493,-1.038
0.188,0.948,-0.187,5.859,4.944,-0.916
0.186,0.955,-0.185,5.615,3.967,-0.427
0.180,0.957,-0.179,5.432,3.235,-0.061
0.179,0.948,-0.174,5.249,2.808,0.427
0.176,0.953,-0.175,4.761,2.380,1.160
0.180,0.972,-0.181,4.883,2.075,1.343
0.176,0.970,-0.181,5.127,2.136,1.404
0.166,0.954,-0.175,5.066,2.441,1.221
0.156,0.955,-0.172,4.700,3.113,1.160
0.159,0.966,-0.168,4.700,3.784,1.282
0.157,0.967,-0.166,4.578,4.333,1.465
0.167,0.968,-0.155,4.700,4.456,1.404
0.183,0.954,-0.150,4.211,3.662,1.770
0.199,0.955,-0.154,3.235,1.831,1.953
0.188,0.966,-0.166,2.258,0.244,1.526
0.156,0.975,-0.172,2.258,0.122,1.404
0.133,0.966,-0.169,2.502,0.977,1.343
0.137,0.960,-0.167,2.747,2.197,1.221
0.159,0.953,-0.166,2.747,2.625,1.160
0.177,0.945,-0.165,2.686,2.441,1.343
0.189,0.944,-0.168,1.831,1.648,1.465
0.184,0.949,-0.167,1.587,0.732,1.648
0.175,0.954,-0.162,1.526,0.122,2.014
0.180,0.952,-0.164,1.099,-0.549,2.502
0.173,0.956,-0.170,0.732,-1.099,2.869
0.157,0.964,-0.170,0.671,-0.793,3.296
0.164,0.975,-0.173,0.427,-0.305,3.723
0.184,0.981,-0.169,0.549,-0.549,4.333
0.182,0.964,-0.158,0.610,-0.916,4.822
0.162,0.948,-0.154,0.000,-1.160,5.188
0.159,0.952,-0.162,-0.305,-1.465,5.310
0.171,0.965,-0.169,-0.366,-1.770,5.676
0.179,0.965,-0.173,-0.671,-2.258,5.981
0.174,0.960,-0.173,-1.099,-3.113,6.165
0.162,0.965,-0.169,-1.465,-3.723,6.104
0.149,0.966,-0.163,-1.526,-3.906,6.104
0.139,0.966,-0.160,-1.526,-3.784,5.737
0.133,0.969,-0.158,-1.526,-3.052,5.371
0.125,0.967,-0.159,-1.526,-2.380,4.883
0.120,0.963,-0.162,-1.526,-1.282,4.089
0.118,0.971,-0.159,-1.465,-0.183,3.540
0.118,0.972,-0.149,-1.526,0.916,3.052
0.110,0.960,-0.144,-1.587,2.319,2.258
0.109,0.959,-0.142,-1.770,3.601,1.404
0.120,0.969,-0.151,-1.770,4.700,0.610
0.134,0.970,-0.157,-1.709,5.127,0.366
0.133,0.961,-0.160,-2.014,5.432,0.061
0.127,0.958,-0.151,-2.380,5.493,-0.732
0.135,0.973,-0.158,-2.869,5.310,-1.343
0.143,0.982,-0.169,-2.930,4.578,-1.648
0.146,0.979,-0.172,-3.052,4.150,-1.648
0.143,0.958,-0.168,-3.052,3.845,-1.526
0.147,0.955,-0.163,-2.991,3.113,-2.075
0.155,0.961,-0.173,-3.540,2.014,-2.380
0.152,0.967,-0.181,-3.479,1.343,-2.258
0.146,0.963,-0.178,-3.296,1.038,-2.380
0.145,0.958,-0.175,-3.540,0.610,-2.686
0.138,0.962,-0.178,-3.235,0.488,-2.625
0.139,0.966,-0.175,-2.869,0.854,-2.625
0.156,0.967,-0.180,-2.563,1.038,-2.502
0.169,0.961,-0.181,-2.441,0.549,-1.953
0.159,0.953,-0.178,-2.563,-0.061,-1.831
0.142,0.955,-0.175,-2.441,0.183,-1.587
0.148,0.964,-0.176,-2.075,0.732,-0.977
0.165,0.963,-0.180,-1.953,0.916,-0.427
0.167,0.957,-0.178,-2.136,0.732,0.122
0.158,0.954,-0.174,-2.014,0.610,0.549
0.154,0.959,-0.175,-1.892,0.671,1.221
0.162,0.957,-0.177,-2.136,0.610,1.648
0.167,0.960,-0.175,-1.831,0.366,2.136
0.161,0.963,-0.180,-1.892,-0.244,2.441
0.146,0.965,-0.185,-1.770,-0.549,2.625
0.135,0.960,-0.186,-1.404,-0.061,2.869
0.140,0.961,-0.181,-1.221,0.122,2.869
0.156,0.963,-0.180,-0.854,-0.122,3.052
0.164,0.963,-0.181,-1.038,-0.793,3.540
0.155,0.959,-0.176,-1.282,-1.465,3.967
0.152,0.958,-0.169,-1.343,-2.075,4.089
0.159,0.959,-0.173,-1.709,-2.869,4.333
0.150,0.962,-0.177,-1.892,-3.296,4.150
0.133,0.963,-0.177,-1.709,-3.174,4.211
0.126,0.963,-0.174,-1.343,-2.869,4.211
0.133,0.962,-0.172,-1.038,-2.502,4.150
0.139,0.958,-0.173,-1.099,-2.441,4.211
0.141,0.957,-0.174,-1.343,-2.686,4.333
0.138,0.959,-0.174,-1.587,-2.869,4.150
0.141,0.960,-0.173,-1.770,-3.174,3.845
0.144,0.967,-0.177,-1.709,-3.662,4.089
0.135,0.968,-0.179,-1.831,-4.089,3.845
0.124,0.963,-0.175,-1.648,-4.089,3.479
0.122,0.960,-0.173,-1.709,-4.028,3.357
0.123,0.965,-0.173,-1.892,-3.784,2.991
0.126,0.965,-0.174,-1.892,-3.662,2.808
0.127,0.966,-0.175,-1.648,-3.540,2.686
0.130,0.963,-0.174,-1.892,-3.662,2.502
0.127,0.964,-0.175,-2.075,-3.662,2.075
0.123,0.968,-0.176,-1.770,-3.601,2.136
0.117,0.966,-0.176,-1.831,-3.357,1.831
0.111,0.966,-0.174,-1.831,-2.686,1.709
0.116,0.968,-0.172,-1.587,-1.892,1.465
0.126,0.964,-0.170,-1.465,-1.343,1.404
0.129,0.963,-0.172,-1.526,-1.099,1.465
0.130,0.965,-0.172,-1.648,-1.282,1.221
0.124,0.966,-0.176,-1.770,-1.160,1.160
0.115,0.968,-0.179,-1.648,-0.610,0.977
0.118,0.969,-0.183,-1.282,0.122,0.793
0.125,0.968,-0.182,-1.282,0.488,0.671
0.135,0.965,-0.179,-1.160,0.183,0.793
0.129,0.963,-0.179,-1.465,-0.244,0.610
0.119,0.969,-0.180,-1.465,-0.427,0.366
0.115,0.970,-0.177,-1.526,-0.305,0.244
0.119,0.966,-0.174,-1.404,0.061,-0.122
0.116,0.961,-0.173,-1.465,0.427,-0.305
0.117,0.964,-0.172,-1.404,0.793,-0.427
0.130,0.964,-0.175,-1.343,0.854,-0.610
0.130,0.959,-0.180,-1.770,0.854,-0.854
0.116,0.959,-0.177,-1.953,0.977,-0.977
0.107,0.961,-0.171,-1.648,1.587,-1.343
0.112,0.963,-0.174,-1.709,2.197,-1.526
0.118,0.965,-0.176,-1.648,2.747,-1.648
0.125,0.960,-0.176,-1.831,2.502,-1.709
0.129,0.961,-0.173,-2.258,2.441,-1.892
0.132,0.963,-0.173,-2.319,2.014,-1.770
0.140,0.961,-0.174,-2.563,1.404,-1.465
0.136,0.956,-0.177,-2.991,0.793,-1.526
0.126,0.960,-0.172,-3.235,0.427,-1.587
0.128,0.967,-0.171,-3.479,0.244,-1.465
0.133,0.962,-0.176,-3.784,-0.244,-1.282
0.137,0.958,-0.183,-3.967,-0.549,-1.160
0.135,0.958,-0.184,-4.028,-0.793,-1.038
0.133,0.962,-0.182,-3.723,-0.977,-0.610
0.143,0.964,-0.183,-3.967,-1.526,-0.183
0.151,0.964,-0.190,-3.906,-2.563,0.366
0.139,0.960,-0.191,-3.967,-3.235,0.671
0.124,0.959,-0.185,-4.028,-2.869,0.854
0.128,0.962,-0.188,-3.662,-2.563,0.916
0.132,0.965,-0.190,-3.662,-2.441,1.038
0.131,0.959,-0.192,-3.357,-2.380,1.343
0.136,0.956,-0.193,-3.235,-2.441,1.892
0.141,0.958,-0.195,-3.113,-2.930,1.953
0.136,0.964,-0.198,-2.930,-3.235,1.770
0.126,0.966,-0.197,-2.930,-3.296,1.648
0.112,0.964,-0.192,-2.563,-2.808,1.526
0.104,0.968,-0.191,-2.380,-1.831,1.099
0.108,0.965,-0.189,-1.892,-1.099,0.671
0.112,0.961,-0.184,-1.709,-0.488,0.366
0.119,0.960,-0.183,-1.831,-0.549,0.061
0.120,0.964,-0.183,-2.075,-1.099,-0.610
0.111,0.967,-0.182,-2.075,-1.343,-1.160
0.111,0.968,-0.182,-2.075,-1.465,-1.526
0.117,0.964,-0.188,-2.197,-1.770,-1.953
0.114,0.964,-0.191,-2.197,-1.770,-2.502
0.113,0.962,-0.189,-2.197,-1.709,-2.808
0.119,0.962,-0.190,-2.197,-1.526,-2.869
0.126,0.962,-0.188,-2.258,-1.465,-2.991
0.128,0.966,-0.186,-2.258,-1.587,-2.930
0.134,0.962,-0.188,-2.258,-1.648,-2.686
0.135,0.959,-0.189,-2.563,-1.709,-2.441
0.139,0.958,-0.190,-2.197,-1.648,-2.075
0.144,0.958,-0.196,-2.136,-1.770,-1.709
0.137,0.964,-0.200,-2.075,-1.648,-1.160
0.128,0.964,-0.197,-1.648,-0.793,-0.732
0.129,0.959,-0.198,-1.343,0.183,-0.366
0.126,0.960,-0.199,-1.282,1.099,-0.061
0.133,0.958,-0.197,-0.732,2.014,0.488
0.144,0.958,-0.197,-0.549,2.319,1.099
0.143,0.958,-0.198,-0.427,2.563,1.709
0.137,0.959,-0.194,-0.122,2.686,2.380
0.143,0.957,-0.192,-0.427,2.625,3.113
0.142,0.963,-0.193,-0.488,2.747,3.540
0.142,0.962,-0.191,-0.488,2.625,4.211
0.143,0.961,-0.189,-0.610,2.197,4.822
0.136,0.962,-0.192,-0.793,1.709,5.188
0.122,0.964,-0.190,-0.793,1.221,5.310
0.117,0.964,-0.189,-0.916,1.038,5.249

0.124,0.969,-0.172,-2.441,0.244,-0.854
0.120,0.961,-0.170,-2.747,0.549,-0.732
0.111,0.967,-0.177,-2.869,0.732,-0.916
0.118,0.969,-0.183,-2.991,0.793,-0.916
0.125,0.964,-0.187,-2.930,0.732,-0.732
0.123,0.960,-0.186,-2.747,0.854,-0.549
0.122,0.957,-0.190,-2.380,0.977,-0.854
0.120,0.956,-0.199,-2.319,1.160,-1.038
0.110,0.962,-0.198,-1.953,1.465,-0.977
0.114,0.961,-0.192,-1.587,1.648,-0.916
0.129,0.960,-0.185,-1.709,1.343,-1.221
0.126,0.958,-0.179,-2.197,0.671,-1.587
0.111,0.963,-0.175,-2.319,0.610,-1.709
0.112,0.968,-0.175,-2.319,0.549,-1.770
0.123,0.965,-0.182,-2.625,0.244,-1.831
0.123,0.961,-0.184,-2.563,0.183,-2.014
0.115,0.963,-0.187,-2.502,0.183,-2.258
0.113,0.964,-0.191,-2.380,0.549,-2.258
0.122,0.970,-0.195,-2.075,0.732,-2.136
0.135,0.963,-0.194,-2.075,0.488,-1.831
0.138,0.956,-0.193,-2.197,-0.122,-1.770
0.137,0.968,-0.201,-2.014,-0.977,-1.587
0.133,0.972,-0.193,-2.014,-1.282,-1.343
0.121,0.958,-0.182,-2.197,-1.099,-1.404
0.109,0.961,-0.181,-1.892,-0.732,-1.343
0.117,0.968,-0.183,-1.831,-0.183,-1.465
0.128,0.968,-0.185,-1.770,0.122,-1.404
0.131,0.967,-0.185,-1.831,0.244,-1.099
0.134,0.971,-0.184,-1.770,0.305,-0.854
0.142,0.967,-0.184,-1.648,-0.671,-0.671
0.135,0.964,-0.195,-1.709,-1.404,-0.610
0.114,0.965,-0.194,-1.648,-1.221,-0.793
0.107,0.961,-0.192,-1.831,-0.488,-1.343
0.110,0.963,-0.192,-1.404,0.183,-1.709
0.115,0.966,-0.200,-1.099,0.610,-1.953
0.108,0.966,-0.200,-0.549,1.343,-2.197
0.102,0.967,-0.195,-0.183,2.136,-2.441
0.110,0.960,-0.191,0.061,2.563,-2.502
0.132,0.962,-0.191,0.244,2.197,-2.563
0.146,0.963,-0.193,0.183,1.282,-2.686
0.128,0.960,-0.192,0.061,0.793,-2.747
0.112,0.959,-0.188,0.244,0.916,-2.808
0.124,0.961,-0.194,0.488,0.977,-2.869
0.137,0.959,-0.201,0.854,0.488,-2.747
0.138,0.956,-0.206,0.854,0.366,-2.686
0.129,0.961,-0.202,1.099,0.549,-2.441
0.135,0.965,-0.199,1.282,0.488,-2.380
0.148,0.968,-0.199,1.587,0.183,-2.136
0.144,0.959,-0.195,1.282,-0.183,-1.770
0.135,0.958,-0.188,1.221,-0.366,-1.770
0.130,0.966,-0.180,1.404,-0.549,-1.587
0.135,0.962,-0.179,1.343,-0.916,-1.343
0.132,0.958,-0.182,1.038,-1.343,-1.282
0.132,0.959,-0.185,0.977,-1.831,-1.404
0.132,0.964,-0.189,1.282,-2.014,-1.404
0.130,0.967,-0.191,1.587,-1.770,-1.465
0.130,0.966,-0.190,1.709,-1.587,-1.221
0.125,0.956,-0.182,1.526,-1.648,-1.465
0.115,0.950,-0.174,1.343,-1.587,-1.709
0.111,0.956,-0.168,1.404,-1.526,-2.014
0.124,0.958,-0.169,1.282,-1.465,-2.075
0.134,0.955,-0.167,1.160,-1.709,-2.014
0.135,0.955,-0.167,0.977,-1.953,-2.075
0.138,0.959,-0.176,0.916,-2.380,-2.197
0.139,0.965,-0.187,0.549,-2.625,-2.258
0.126,0.966,-0.187,0.854,-2.014,-2.075
0.114,0.967,-0.179,1.465,-0.732,-1.953
0.121,0.958,-0.185,1.953,0.549,-2.075
0.132,0.957,-0.195,2.136,1.404,-2.136
0.134,0.960,-0.200,2.258,2.197,-2.136
0.131,0.962,-0.196,2.563,2.563,-2.258
0.127,0.964,-0.186,3.052,3.418,-2.197
0.134,0.962,-0.180,3.174,3.540,-2.136
0.136,0.965,-0.180,3.113,3.662,-2.075
0.128,0.964,-0.178,3.113,3.845,-2.197
0.129,0.964,-0.173,3.235,4.028,-2.075
0.137,0.964,-0.170,2.991,3.784,-1.953
0.139,0.964,-0.168,2.747,3.296,-1.953
0.136,0.965,-0.170,2.686,2.930,-1.953
0.136,0.969,-0.171,2.747,2.686,-1.831
0.138,0.968,-0.172,2.808,2.563,-1.831
0.134,0.964,-0.169,2.502,2.502,-1.770
0.133,0.963,-0.165,2.441,2.625,-1.770
0.142,0.964,-0.167,2.502,2.686,-1.465
0.149,0.963,-0.169,2.380,2.075,-0.977
0.149,0.959,-0.172,2.136,1.465,-0.854
0.148,0.966,-0.171,2.136,0.977,-0.549
0.146,0.968,-0.172,1.953,0.305,-0.366
0.138,0.966,-0.173,1.953,0.122,-0.061
0.128,0.966,-0.169,2.319,0.305,-0.183
0.130,0.966,-0.166,2.380,0.671,-0.122
0.140,0.960,-0.167,2.136,0.610,0.000
0.143,0.960,-0.163,2.136,0.061,0.183
0.144,0.958,-0.156,1.892,-0.305,0.427
0.143,0.957,-0.156,1.526,-0.793,0.549
0.129,0.958,-0.154,1.343,-1.038,0.732
0.118,0.963,-0.154,1.282,-0.183,0.427
0.121,0.975,-0.153,1.404,1.282,0.671
0.129,0.978,-0.156,1.465,2.014,0.671
0.131,0.967,-0.160,1.587,2.869,0.916
0.134,0.963,-0.159,1.526,3.357,1.099
0.148,0.959,-0.162,1.587,3.174,1.648
0.153,0.956,-0.165,1.526,2.502,2.014
0.141,0.958,-0.169,1.343,2.014,2.258
0.130,0.969,-0.168,1.587,2.319,2.258
0.123,0.970,-0.164,2.014,3.174,2.441
0.120,0.968,-0.160,2.014,4.028,2.319
0.117,0.971,-0.159,2.197,4.761,2.258
0.116,0.965,-0.155,2.197,5.310,2.197
0.115,0.961,-0.152,2.136,5.798,1.831
0.121,0.967,-0.151,2.197,5.615,1.526
0.130,0.969,-0.154,2.014,5.005,1.404
0.137,0.970,-0.155,1.831,3.967,1.343
0.135,0.971,-0.158,1.465,2.991,1.160
0.130,0.973,-0.157,1.465,2.136,0.916
0.121,0.970,-0.155,1.465,1.587,0.549
0.111,0.965,-0.154,1.465,1.709,0.244
0.104,0.964,-0.149,1.160,2.136,-0.183
0.113,0.962,-0.145,1.038,2.563,-0.366
0.130,0.965,-0.145,1.099,2.197,-0.366
0.139,0.965,-0.149,1.038,1.343,-0.366
0.127,0.970,-0.153,0.732,0.854,-0.305
0.117,0.974,-0.150,0.488,0.916,-0.366
0.124,0.971,-0.148,0.610,1.343,-0.366
0.131,0.967,-0.149,0.427,1.160,-0.366
0.126,0.968,-0.151,0.183,0.977,-0.183
0.119,0.971,-0.154,0.061,1.282,-0.244
0.118,0.969,-0.151,0.305,1.648,-0.183
0.120,0.963,-0.152,0.427,2.319,-0.183
0.117,0.964,-0.148,0.122,2.625,-0.305
0.120,0.965,-0.145,0.122,2.747,-0.305
0.124,0.966,-0.147,0.244,2.991,-0.366
0.122,0.969,-0.147,0.305,3.174,-0.366
0.129,0.966,-0.149,-0.183,2.747,-0.305
0.125,0.963,-0.151,-0.427,2.502,-0.244
0.124,0.966,-0.150,-0.488,2.319,-0.427
0.126,0.970,-0.148,-0.671,2.075,-0.366
0.122,0.971,-0.146,-0.793,1.770,-0.427
0.114,0.972,-0.144,-0.854,1.892,-0.549
0.115,0.973,-0.146,-0.793,1.770,-0.854
0.128,0.973,-0.147,-0.916,1.404,-1.038
0.135,0.970,-0.151,-1.221,0.610,-1.221
0.118,0.969,-0.155,-1.526,0.000,-1.831
0.101,0.973,-0.153,-1.282,-0.061,-2.319
0.099,0.974,-0.150,-0.916,0.305,-2.747
0.108,0.968,-0.146,-0.854,0.732,-3.113
0.120,0.963,-0.149,-1.404,0.610,-3.235
0.118,0.963,-0.147,-1.831,0.610,-3.418
0.118,0.963,-0.146,-1.709,0.488,-3.357
0.126,0.973,-0.145,-1.953,0.488,-3.540
0.126,0.971,-0.148,-1.892,0.549,-3.601
0.126,0.967,-0.146,-1.892,0.671,-3.601
0.130,0.969,-0.145,-2.136,0.732,-3.601
0.133,0.971,-0.155,-2.502,0.183,-3.662
0.138,0.970,-0.160,-2.380,-0.916,-3.601
0.135,0.968,-0.163,-2.563,-1.709,-3.479
0.138,0.970,-0.158,-2.625,-2.319,-3.296
0.138,0.969,-0.156,-2.563,-2.319,-3.174
0.134,0.966,-0.156,-2.686,-2.258,-3.235
0.128,0.966,-0.156,-2.869,-2.136,-3.296
0.130,0.963,-0.158,-2.502,-2.625,-3.296
0.130,0.965,-0.165,-2.625,-3.601,-3.357
0.121,0.970,-0.145,-2.625,-3.601,-3.479
0.128,0.970,-0.143,-2.502,-3.113,-3.418
0.132,0.965,-0.143,-2.808,-2.563,-3.418
0.145,0.966,-0.152,-2.991,-2.686,-3.357
0.138,0.962,-0.156,-2.869,-2.747,-3.418
0.133,0.969,-0.156,-2.747,-2.563,-3.479
0.132,0.970,-0.166,-2.258,-2.869,-3.662
0.119,0.968,-0.161,-2.258,-2.441,-3.784
0.123,0.969,-0.162,-1.831,-1.953,-4.028
0.126,0.967,-0.158,-1.892,-1.648,-4.089
0.138,0.964,-0.161,-1.770,-1.953,-3.845
0.144,0.966,-0.154,-1.465,-2.502,-3.601
0.153,0.961,-0.155,-1.770,-3.235,-3.357
0.153,0.965,-0.158,-1.831,-4.028,-3.174
0.146,0.968,-0.152,-1.831,-4.272,-2.808
0.138,0.972,-0.153,-2.075,-3.906,-2.747
0.130,0.970,-0.154,-2.075,-2.808,-2.686
0.138,0.970,-0.152,-1.770,-1.526,-2.563
0.156,0.963,-0.168,-1.709,-1.526,-2.380
0.145,0.965,-0.174,-1.404,-2.380,-2.014
0.131,0.970,-0.167,-1.221,-2.808,-1.526
0.133,0.975,-0.160,-0.977,-2.563,-1.282
0.137,0.968,-0.154,-1.099,-2.197,-0.977
0.144,0.965,-0.154,-1.282,-1.587,-0.732
0.153,0.960,-0.148,-1.221,-1.160,-0.366
0.156,0.959,-0.152,-1.282,-0.793,-0.122
0.152,0.962,-0.158,-1.465,-0.366,-0.061
0.158,0.964,-0.162,-1.648,-0.488,0.061
0.155,0.956,-0.166,-1.648,-0.793,0.305
0.148,0.962,-0.165,-1.465,-0.793,0.427
0.141,0.964,-0.163,-1.343,-0.366,0.427
0.140,0.965,-0.163,-1.221,-0.061,0.549
0.135,0.963,-0.164,-0.854,0.366,0.549
0.148,0.965,-0.160,-1.099,0.610,0.427
0.162,0.964,-0.163,-1.099,0.427,0.488
0.165,0.959,-0.167,-1.160,-0.244,0.549
0.145,0.960,-0.164,-1.160,-0.183,0.793
0.150,0.967,-0.158,-0.977,-0.244,1.099
0.149,0.964,-0.156,-1.099,-0.366,1.038
0.133,0.964,-0.160,-1.038,-0.305,0.916
0.132,0.964,-0.159,-0.854,-0.244,1.099
0.144,0.967,-0.156,-0.916,-0.183,1.160
0.149,0.965,-0.156,-1.160,0.000,1.343
0.154,0.961,-0.155,-1.221,-0.122,1.465
0.149,0.960,-0.159,-1.221,-0.732,1.404
0.138,0.966,-0.163,-1.343,-1.465,1.648
0.141,0.972,-0.164,-0.854,-1.465,1.770
0.146,0.962,-0.162,-0.732,-1.465,2.014
0.142,0.959,-0.157,-0.793,-1.160,1.953
0.133,0.964,-0.157,-0.854,-0.854,1.770
0.125,0.974,-0.158,-0.793,-0.488,1.770
0.126,0.969,-0.159,-0.671,0.244,1.709
0.132,0.965,-0.152,-0.122,0.671,1.648
0.137,0.961,-0.152,-0.244,0.549,1.282
0.134,0.966,-0.156,-0.488,0.244,0.793
0.120,0.969,-0.157,-0.610,0.366,0.610
0.115,0.973,-0.156,-0.427,0.977,0.305
0.124,0.970,-0.153,-0.427,1.709,0.183
0.129,0.965,-0.153,-0.427,2.075,0.000
0.135,0.963,-0.155,-0.549,2.075,-0.061
0.135,0.965,-0.158,-0.610,2.319,0.183
0.144,0.965,-0.159,-0.610,2.502,0.305
0.153,0.960,-0.156,-0.793,2.563,0.488
0.158,0.958,-0.156,-0.977,2.014,0.549
0.143,0.958,-0.162,-0.977,1.709,0.732
0.127,0.965,-0.163,-0.977,1.953,1.038
0.131,0.967,-0.159,-0.488,2.380,1.038
0.136,0.962,-0.160,-0.671,2.563,0.793
0.130,0.969,-0.161,-0.610,2.197,0.427
0.108,0.974,-0.161,-0.610,2.075,0.183
0.112,0.974,-0.160,-0.244,2.258,0.244
0.132,0.969,-0.159,-0.305,2.319,0.427
0.143,0.962,-0.158,-0.488,2.319,0.183
0.138,0.962,-0.156,-0.854,2.014,0.061
0.131,0.965,-0.154,-1.282,2.197,0.061
0.131,0.966,-0.155,-0.977,2.808,0.183

0.161,0.943,-0.267,-0.977,1.404,-1.526
0.169,0.938,-0.269,-1.160,1.343,-1.709
0.170,0.936,-0.272,-1.282,0.977,-1.526
0.168,0.935,-0.274,-1.343,0.916,-1.404
0.167,0.934,-0.272,-1.465,1.099,-1.343
0.170,0.933,-0.272,-1.343,1.221,-1.221
0.177,0.931,-0.277,-1.343,0.977,-1.038
0.180,0.937,-0.281,-1.404,0.488,-0.854
0.173,0.938,-0.282,-1.343,0.549,-0.732
0.166,0.936,-0.281,-0.977,0.793,-0.488
0.170,0.937,-0.282,-0.854,0.671,-0.488
0.177,0.940,-0.282,-0.793,0.854,-0.183
0.177,0.939,-0.280,-0.671,0.916,-0.061
0.176,0.938,-0.279,-0.427,0.793,0.183
0.172,0.942,-0.279,-0.183,0.793,0.244
0.172,0.940,-0.278,-0.122,0.793,0.244
0.177,0.937,-0.280,0.000,0.305,0.488
0.176,0.935,-0.281,-0.061,-0.122,0.732
0.163,0.936,-0.278,-0.061,0.000,0.793
0.153,0.937,-0.274,0.244,0.366,0.488
0.158,0.937,-0.270,0.366,0.610,0.305
0.169,0.938,-0.271,0.488,0.549,0.183
0.169,0.935,-0.272,0.305,0.183,0.305
0.165,0.934,-0.272,0.122,0.122,0.122
0.160,0.936,-0.271,0.183,0.305,0.122
0.162,0.940,-0.272,0.122,0.366,0.244
0.161,0.942,-0.271,0.244,0.793,0.366
0.159,0.941,-0.267,0.183,1.221,0.244
0.163,0.938,-0.264,0.000,1.526,0.427
0.164,0.937,-0.266,-0.122,1.709,0.122
0.163,0.938,-0.266,-0.610,2.075,0.000
0.166,0.942,-0.267,-0.488,2.197,0.000
0.165,0.941,-0.268,-1.038,2.014,-0.305
0.164,0.941,-0.266,-1.160,2.136,-0.305
0.162,0.941,-0.266,-1.099,2.197,-0.366
0.164,0.939,-0.269,-1.282,2.258,-0.305
0.167,0.956,-0.275,-0.854,2.441,-0.366
0.159,0.916,-0.272,-1.343,2.502,-0.305
0.157,0.935,-0.271,-1.465,2.563,-0.366
0.159,0.933,-0.271,-1.343,2.686,-0.366
0.165,0.935,-0.271,-1.282,2.625,-0.366
0.167,0.938,-0.275,-1.343,2.258,-0.366
0.166,0.941,-0.276,-1.282,2.014,-0.366
0.168,0.940,-0.276,-0.916,1.953,-0.305
0.170,0.934,-0.278,-0.732,1.709,-0.366
0.174,0.937,-0.280,-0.793,1.038,-0.549
0.169,0.938,-0.280,-0.854,0.671,-0.305
0.165,0.940,-0.278,-0.732,0.793,-0.488
0.159,0.942,-0.277,-0.549,0.916,-0.305
0.158,0.941,-0.275,-0.427,1.099,-0.122
0.162,0.939,-0.274,-0.305,0.916,-0.122
0.165,0.937,-0.274,-0.427,0.793,-0.061
0.167,0.935,-0.274,-0.366,0.610,0.000
0.166,0.936,-0.272,-0.488,0.671,-0.183
0.162,0.937,-0.274,-0.366,0.610,-0.244
0.161,0.939,-0.274,-0.427,0.488,-0.061
0.161,0.942,-0.273,-0.427,0.549,-0.122
0.162,0.941,-0.271,-0.305,0.427,-0.183
0.165,0.938,-0.271,-0.427,0.366,-0.183
0.160,0.937,-0.272,-0.610,0.366,-0.488
0.154,0.940,-0.272,-0.488,0.488,-0.488
0.152,0.943,-0.271,-0.427,0.671,-0.488
0.156,0.941,-0.271,-0.488,0.977,-0.427
0.161,0.939,-0.272,-0.549,1.160,-0.549
0.162,0.938,-0.273,-0.671,0.977,-0.305
0.163,0.939,-0.272,-0.916,1.099,-0.427
0.164,0.935,-0.271,-0.793,1.038,-0.427
0.161,0.937,-0.271,-0.916,1.160,-0.488
0.155,0.941,-0.271,-0.793,1.099,-0.610
0.155,0.942,-0.269,-0.793,1.282,-0.610
0.165,0.938,-0.271,-0.610,1.343,-0.549
0.173,0.937,-0.274,-0.854,0.916,-0.610
0.168,0.936,-0.277,-1.099,0.488,-0.488
0.159,0.936,-0.277,-1.038,0.366,-0.549
0.156,0.938,-0.274,-0.977,1.038,-0.549
0.161,0.938,-0.271,-0.854,1.038,-0.610
0.165,0.939,-0.270,-1.038,0.610,-0.671
0.164,0.943,-0.271,-1.343,0.671,-0.732
0.157,0.940,-0.271,-1.343,0.793,-0.732
0.153,0.941,-0.270,-1.099,1.160,-0.732
0.154,0.941,-0.271,-1.038,1.038,-0.916
0.159,0.939,-0.270,-1.038,0.916,-0.793
0.163,0.938,-0.274,-1.343,0.916,-0.854
0.165,0.940,-0.276,-1.404,0.793,-0.671
0.166,0.938,-0.276,-1.282,0.732,-0.916
0.162,0.938,-0.278,-1.221,0.793,-0.854
0.160,0.941,-0.276,-1.099,0.793,-0.732
0.161,0.941,-0.274,-1.038,0.854,-0.854
0.161,0.939,-0.272,-1.160,0.977,-0.977
0.156,0.940,-0.273,-1.099,0.977,-0.916
0.157,0.940,-0.273,-1.221,1.160,-0.854
0.162,0.940,-0.273,-0.793,1.099,-0.854
0.167,0.936,-0.275,-0.732,0.732,-0.732
0.166,0.937,-0.276,-0.793,0.549,-0.854
0.162,0.939,-0.277,-0.977,0.305,-0.732
0.157,0.941,-0.277,-1.160,0.732,-0.793
0.161,0.939,-0.276,-0.854,0.549,-0.977
0.166,0.939,-0.277,-0.610,0.366,-0.793
0.167,0.940,-0.277,-0.610,0.427,-0.610
0.163,0.939,-0.277,-0.366,0.305,-0.488
0.161,0.937,-0.275,-0.488,0.366,-0.610
0.161,0.937,-0.275,-0.732,0.549,-0.610
0.162,0.935,-0.274,-0.610,0.488,-0.549
0.162,0.940,-0.273,-0.549,0.427,-0.549
0.161,0.940,-0.272,-0.549,0.671,-0.549
0.160,0.941,-0.271,-0.610,0.549,-0.610
0.161,0.942,-0.271,-0.671,0.610,-0.366
0.162,0.941,-0.271,-1.038,0.610,-0.610
0.160,0.936,-0.273,-0.916,0.427,-0.427
0.158,0.937,-0.273,-0.793,0.366,-0.427
0.158,0.941,-0.273,-0.854,0.488,-0.610
0.159,0.940,-0.273,-1.099,0.549,-0.732
0.161,0.942,-0.274,-0.793,0.671,-0.732
0.160,0.938,-0.274,-0.854,0.916,-0.854
0.158,0.938,-0.273,-0.732,0.916,-0.793
0.159,0.938,-0.273,-0.793,0.977,-0.671
0.160,0.937,-0.274,-0.916,0.854,-0.671
0.161,0.940,-0.274,-1.099,0.793,-0.793
0.161,0.941,-0.274,-1.099,0.732,-0.671
0.161,0.939,-0.275,-1.221,0.793,-0.671
0.164,0.939,-0.275,-0.916,0.854,-0.549
0.166,0.940,-0.275,-0.793,0.793,-0.671
0.164,0.936,-0.275,-0.977,0.427,-0.732
0.163,0.938,-0.275,-0.916,0.305,-0.488
0.159,0.937,-0.278,-1.099,0.366,-0.610
0.152,0.937,-0.274,-1.038,0.732,-0.854
0.155,0.937,-0.273,-0.977,1.038,-0.854
0.164,0.941,-0.273,-0.916,1.099,-0.793
0.168,0.940,-0.273,-0.916,0.977,-0.732
0.168,0.939,-0.274,-0.916,0.793,-0.488
0.162,0.938,-0.272,-1.282,0.854,-0.610
0.155,0.938,-0.273,-1.526,0.916,-0.549
0.154,0.942,-0.273,-1.099,1.160,-0.671
0.157,0.937,-0.272,-1.160,0.916,-0.916
0.164,0.937,-0.276,-1.221,0.854,-0.610
0.165,0.939,-0.277,-1.038,0.671,-0.427
0.163,0.939,-0.279,-1.099,0.427,-0.671
0.158,0.939,-0.277,-1.404,0.854,-0.977
0.154,0.937,-0.275,-1.160,1.038,-1.038
0.154,0.936,-0.273,-1.099,0.977,-1.160
0.159,0.937,-0.273,-1.038,0.732,-1.099
0.162,0.939,-0.275,-1.038,0.854,-0.854
0.163,0.939,-0.275,-1.160,0.854,-0.854
0.164,0.937,-0.275,-1.221,0.610,-1.038
0.162,0.939,-0.278,-1.038,0.366,-0.916
0.158,0.939,-0.279,-0.916,0.427,-0.793
0.157,0.937,-0.278,-0.854,0.793,-0.916
0.161,0.937,-0.278,-0.671,0.854,-0.854
0.166,0.937,-0.278,-0.793,0.793,-0.793
0.169,0.939,-0.278,-0.854,0.671,-0.732
0.168,0.939,-0.278,-0.549,0.488,-0.488
0.164,0.939,-0.277,-0.671,0.610,-0.488
0.159,0.938,-0.276,-0.671,0.793,-0.671
0.157,0.937,-0.273,-0.610,0.916,-0.671
0.158,0.937,-0.272,-0.732,0.854,-0.488
0.158,0.937,-0.273,-0.793,0.732,-0.366
0.159,0.939,-0.275,-0.854,0.549,-0.244
0.160,0.938,-0.274,-0.793,0.854,-0.427
0.160,0.938,-0.276,-0.793,0.916,-0.305
0.161,0.938,-0.275,-0.732,0.854,-0.610
0.163,0.942,-0.275,-0.793,0.732,-0.549
0.164,0.938,-0.274,-0.916,0.610,-0.671
0.163,0.939,-0.277,-0.854,0.732,-0.610
0.158,0.937,-0.276,-0.793,0.732,-0.366
0.156,0.937,-0.275,-0.854,0.793,-0.427
0.157,0.936,-0.275,-0.854,0.977,-0.549
0.160,0.937,-0.276,-0.854,1.038,-0.671
0.165,0.938,-0.274,-1.038,0.977,-0.549
0.166,0.938,-0.275,-0.793,0.854,-0.671
0.163,0.939,-0.275,-0.916,0.610,-0.549
0.158,0.939,-0.275,-0.854,0.732,-0.488
0.155,0.938,-0.275,-0.854,0.793,-0.549
0.158,0.937,-0.275,-0.732,0.793,-0.671
0.160,0.937,-0.275,-0.549,0.732,-0.610
0.161,0.937,-0.275,-0.854,0.549,-0.671
0.162,0.937,-0.276,-0.793,0.366,-0.854
0.159,0.934,-0.277,-0.854,0.366,-0.793
0.154,0.937,-0.278,-0.732,0.427,-0.793
0.157,0.940,-0.277,-0.610,0.732,-0.671
0.166,0.942,-0.273,-0.488,0.732,-0.671
0.173,0.941,-0.274,-0.427,0.671,-0.610
0.169,0.937,-0.276,-0.793,0.549,-0.610
0.158,0.936,-0.276,-0.854,0.366,-0.549
0.152,0.938,-0.277,-0.916,0.549,-0.610
0.151,0.939,-0.274,-1.038,0.916,-0.793
0.156,0.938,-0.273,-0.671,0.977,-0.671
0.162,0.940,-0.275,-0.610,0.916,-0.671
0.168,0.940,-0.277,-0.671,0.610,-0.671
0.166,0.936,-0.278,-0.610,0.549,-0.549
0.161,0.936,-0.278,-0.732,0.366,-0.549
0.158,0.939,-0.277,-0.793,0.549,-0.671
0.154,0.938,-0.273,-0.793,0.854,-0.610
0.154,0.940,-0.271,-0.793,1.221,-0.732
0.158,0.941,-0.271,-0.916,0.977,-0.854
0.162,0.939,-0.274,-0.793,0.854,-0.610
0.164,0.938,-0.277,-0.854,0.610,-0.488
0.165,0.937,-0.279,-0.854,0.305,-0.671
0.164,0.936,-0.280,-0.916,0.427,-0.793
0.161,0.936,-0.278,-0.793,0.671,-0.732
0.156,0.939,-0.275,-0.671,1.038,-0.793
0.157,0.942,-0.273,-0.549,1.221,-0.854
0.160,0.939,-0.272,-0.793,1.343,-0.793
0.161,0.938,-0.273,-0.793,1.160,-0.732
0.162,0.937,-0.275,-0.732,0.977,-0.671
0.158,0.938,-0.276,-0.916,0.916,-0.610
0.159,0.941,-0.275,-0.916,1.038,-0.549
0.164,0.937,-0.273,-0.916,0.977,-0.671
0.166,0.933,-0.277,-0.977,0.488,-0.488
0.162,0.937,-0.279,-0.977,0.366,-0.488
0.157,0.939,-0.277,-0.854,0.488,-0.610
0.156,0.940,-0.275,-0.916,1.038,-0.732
0.156,0.942,-0.272,-0.977,0.977,-0.732
0.158,0.941,-0.274,-0.732,0.977,-0.671
0.162,0.937,-0.275,-0.916,0.854,-0.610
0.164,0.936,-0.277,-1.038,0.732,-0.610
0.162,0.937,-0.278,-1.099,0.549,-0.732
0.161,0.940,-0.279,-0.977,0.488,-0.793
0.160,0.940,-0.277,-0.916,0.427,-0.671
0.159,0.939,-0.274,-0.671,0.549,-0.488
0.160,0.938,-0.275,-0.854,0.488,-0.610
0.158,0.938,-0.276,-1.099,0.549,-0.671
0.159,0.937,-0.277,-0.977,0.427,-0.793
0.160,0.937,-0.275,-0.916,0.366,-0.732
0.158,0.940,-0.274,-0.854,0.549,-0.732
0.161,0.942,-0.274,-0.916,0.549,-0.793
0.164,0.938,-0.275,-0.854,0.488,-0.732
0.160,0.937,-0.275,-0.977,0.488,-1.038
0.157,0.939,-0.274,-0.793,0.366,-0.793
0.157,0.939,-0.274,-0.793,0.549,-0.671
0.156,0.937,-0.275,-0.732,0.732,-0.732
0.161,0.936,-0.274,-0.854,0.793,-0.671
0.161,0.940,-0.275,-0.916,0.671,-0.854
0.161,0.942,-0.275,-0.916,0.732,-0.793
0.161,0.938,-0.275,-0.793,0.671,-0.671
0.160,0.937,-0.275,-0.854,0.488,-0.427
0.159,0.939,-0.275,-0.793,0.366,-0.549
0.159,0.939,-0.276,-1.038,0.549,-0.854
0.162,0.938,-0.277,-0.854,0.610,-0.671

0.117,0.976,-0.219,1.343,-4.944,-1.953
0.110,0.977,-0.212,1.770,-3.662,-2.014
0.114,0.973,-0.207,1.953,-2.258,-1.892
0.125,0.964,-0.205,2.014,-1.709,-1.587
0.131,0.953,-0.206,1.770,-1.526,-1.648
0.128,0.949,-0.207,1.587,-1.099,-1.892
0.115,0.945,-0.206,1.465,0.061,-2.319
0.108,0.944,-0.207,1.343,1.343,-2.991
0.098,0.950,-0.206,1.648,2.747,-3.540
0.092,0.950,-0.202,1.648,4.333,-4.333
0.097,0.950,-0.200,1.709,5.676,-4.944
0.106,0.951,-0.198,1.465,6.531,-5.615
0.111,0.956,-0.198,1.343,6.958,-6.409
0.119,0.956,-0.202,1.099,6.836,-7.080
0.122,0.960,-0.204,0.793,6.958,-7.568
0.131,0.959,-0.206,0.610,6.531,-7.812
0.139,0.954,-0.208,0.244,5.981,-8.240
0.144,0.955,-0.208,0.061,5.310,-8.545
0.147,0.957,-0.211,-0.183,4.456,-8.545
0.148,0.955,-0.213,-0.427,3.723,-8.484
0.151,0.950,-0.211,-0.488,3.174,-8.362
0.154,0.949,-0.210,-0.916,2.808,-8.789
0.152,0.959,-0.201,-1.099,2.625,-8.911
0.153,0.965,-0.199,-1.038,1.953,-8.667
0.161,0.951,-0.206,-1.160,1.099,-7.996
0.168,0.945,-0.209,-1.526,0.183,-7.507
0.165,0.957,-0.208,-1.892,-0.671,-7.507
0.166,0.957,-0.211,-2.014,-0.977,-6.958
0.168,0.950,-0.217,-1.953,-1.160,-6.409
0.166,0.945,-0.220,-1.892,-1.038,-6.042
0.162,0.958,-0.215,-1.648,-0.549,-5.859
0.157,0.966,-0.211,-1.282,0.366,-5.432
0.161,0.948,-0.214,-1.038,0.916,-5.005
0.169,0.941,-0.224,-1.343,1.221,-4.639
0.169,0.964,-0.225,-1.221,1.709,-4.272
0.156,0.977,-0.216,-0.671,2.441,-4.211
0.145,0.967,-0.209,0.000,3.967,-3.784
0.144,0.958,-0.213,0.244,5.249,-3.601
0.146,0.963,-0.216,0.549,6.348,-3.784
0.148,0.952,-0.211,0.732,7.507,-3.723
0.148,0.946,-0.204,0.793,8.362,-3.845
0.145,0.956,-0.198,0.916,9.033,-4.395
0.148,0.961,-0.201,1.160,9.277,-4.822
0.161,0.947,-0.213,1.465,8.789,-4.517
0.172,0.929,-0.224,1.160,7.568,-4.150
0.176,0.941,-0.234,0.854,6.714,-4.517
0.170,0.945,-0.231,1.099,6.409,-5.005
0.165,0.941,-0.227,1.343,6.470,-5.493
0.161,0.934,-0.228,1.709,7.324,-5.798
0.157,0.939,-0.226,1.831,8.179,-6.104
0.156,0.949,-0.226,2.319,8.606,-6.348
0.165,0.949,-0.225,2.502,8.484,-6.226
0.175,0.949,-0.218,2.686,8.057,-6.714
0.177,0.955,-0.213,3.052,7.202,-6.653
0.178,0.946,-0.219,3.418,6.592,-6.653
0.172,0.943,-0.226,3.113,6.287,-7.019
0.159,0.945,-0.231,3.052,7.080,-7.385
0.150,0.954,-0.224,3.906,8.545,-7.568
0.144,0.956,-0.220,4.700,10.376,-8.057
0.147,0.954,-0.219,5.554,12.451,-8.301
0.156,0.946,-0.220,6.165,13.794,-8.179
0.175,0.941,-0.219,6.836,14.465,-7.935
0.192,0.933,-0.220,7.080,14.587,-7.385
0.191,0.949,-0.209,6.592,14.465,-7.202
0.187,0.968,-0.194,7.263,14.282,-7.507
0.192,0.956,-0.198,8.057,13.428,-7.446
0.195,0.931,-0.206,8.301,12.756,-6.897
0.189,0.914,-0.207,7.751,12.573,-6.531
0.175,0.922,-0.198,7.812,12.878,-6.775
0.165,0.934,-0.205,8.728,14.832,-6.592
0.167,0.933,-0.200,9.399,16.846,-5.981
0.204,0.945,-0.201,10.498,18.066,-6.653
0.209,0.927,-0.199,10.864,18.616,-7.996
0.218,0.923,-0.189,11.108,18.738,-8.301
0.218,0.918,-0.175,10.437,18.188,-7.812
0.221,0.943,-0.167,9.216,17.090,-7.019
0.220,0.974,-0.160,8.484,14.771,-5.981
0.211,0.989,-0.161,7.141,11.536,-4.028
0.217,1.007,-0.170,5.798,9.033,-3.601
0.211,1.043,-0.173,6.958,7.507,-3.601
0.189,1.005,-0.173,7.385,6.897,-2.380
0.193,0.974,-0.184,6.775,7.690,-0.671
0.224,0.958,-0.182,6.287,7.874,0.488
0.235,0.944,-0.178,6.042,7.629,0.854
0.229,0.934,-0.165,5.737,7.935,1.648
0.232,0.935,-0.166,5.432,7.812,2.991
0.232,0.938,-0.182,5.249,7.446,4.456
0.243,0.933,-0.189,4.944,7.202,6.287
0.252,0.932,-0.189,4.700,6.531,8.240
0.248,0.933,-0.187,4.395,6.165,9.583
0.238,0.937,-0.186,4.150,5.127,10.925
0.221,0.950,-0.182,3.845,4.456,12.207
0.202,0.956,-0.177,3.540,4.150,13.245
0.187,0.955,-0.168,3.235,4.150,13.611
0.183,0.954,-0.156,2.686,3.906,13.672
0.174,0.954,-0.147,2.258,3.418,13.550
0.169,0.963,-0.145,1.648,2.686,13.367
0.156,0.965,-0.155,1.587,1.892,13.123
0.141,0.959,-0.155,1.160,1.831,12.634
0.136,0.966,-0.155,1.160,2.258,11.597
0.133,0.969,-0.157,1.282,2.686,11.047
0.135,0.967,-0.150,1.404,3.052,10.376
0.135,0.966,-0.157,0.977,3.418,9.705
0.137,0.970,-0.157,0.793,3.967,8.850
0.144,0.969,-0.159,0.732,3.845,7.996
0.146,0.968,-0.156,-0.122,3.418,6.958
0.136,0.973,-0.157,-0.549,2.686,6.165
0.127,0.971,-0.150,-0.793,2.258,5.371
0.128,0.973,-0.153,-0.793,2.502,4.333
0.127,0.975,-0.157,-0.977,2.563,3.479
0.127,0.968,-0.150,-0.854,2.502,2.808
0.129,0.961,-0.150,-1.038,2.075,2.258
0.139,0.958,-0.154,-1.526,1.770,2.014
0.147,0.964,-0.157,-1.892,1.587,1.953
0.139,0.961,-0.159,-1.709,1.221,1.709
0.132,0.956,-0.161,-1.709,1.099,1.648
0.137,0.956,-0.165,-1.831,1.099,1.587
0.152,0.958,-0.172,-2.075,0.732,1.465
0.155,0.964,-0.171,-2.136,0.366,1.404
0.143,0.963,-0.165,-2.197,0.305,1.465
0.128,0.963,-0.164,-1.892,0.793,1.465
0.129,0.956,-0.164,-1.648,1.099,1.526
0.142,0.957,-0.167,-1.770,1.099,1.465
0.151,0.965,-0.170,-2.014,0.916,1.465
0.151,0.965,-0.170,-1.953,0.854,1.892
0.153,0.958,-0.161,-1.953,1.221,2.258
0.153,0.952,-0.158,-2.380,0.916,2.625
0.153,0.953,-0.162,-2.869,0.366,2.991
0.151,0.965,-0.164,-3.113,0.366,3.113
0.142,0.962,-0.167,-3.235,0.732,3.357
0.142,0.954,-0.166,-2.991,0.916,3.479
0.147,0.961,-0.167,-3.296,0.610,3.479
0.141,0.967,-0.173,-3.418,0.122,3.357
0.129,0.965,-0.171,-3.113,-0.061,3.357
0.122,0.959,-0.170,-2.930,0.305,3.235
0.130,0.957,-0.175,-3.052,0.061,2.930
0.133,0.965,-0.181,-2.991,-0.244,2.686
0.131,0.976,-0.176,-2.930,-0.732,2.319
0.120,0.975,-0.169,-2.563,-0.671,2.136
0.119,0.964,-0.167,-2.441,-0.427,1.953
0.135,0.954,-0.165,-2.686,-0.732,1.831
0.137,0.957,-0.167,-3.052,-1.465,1.526
0.130,0.964,-0.167,-3.296,-1.770,1.465
0.128,0.963,-0.169,-3.418,-1.953,1.526
0.134,0.960,-0.168,-3.296,-1.648,1.587
0.135,0.959,-0.175,-3.479,-1.831,1.648
0.141,0.964,-0.183,-3.601,-1.831,1.831
0.133,0.969,-0.179,-3.418,-1.892,1.953
0.122,0.965,-0.178,-2.869,-1.099,2.502
0.131,0.962,-0.181,-2.625,-0.732,2.991
0.138,0.964,-0.179,-2.502,-0.488,3.174
0.138,0.959,-0.181,-2.441,-0.305,3.723
0.149,0.952,-0.179,-2.563,-0.732,4.272
0.151,0.953,-0.179,-2.747,-1.770,5.188
0.138,0.961,-0.182,-2.808,-1.953,5.798
0.127,0.975,-0.180,-2.869,-1.099,6.348
0.136,0.982,-0.178,-2.625,0.000,6.958
0.144,0.973,-0.192,-2.441,0.427,7.202
0.127,0.962,-0.194,-2.319,0.244,7.202
0.125,0.960,-0.185,-2.014,0.061,7.019
0.122,0.954,-0.181,-2.075,-0.549,6.714
0.115,0.961,-0.177,-2.319,-1.038,6.165
0.106,0.971,-0.173,-2.014,-1.587,5.737
0.107,0.965,-0.176,-2.014,-2.380,5.066
0.106,0.960,-0.175,-2.319,-3.052,4.333
0.093,0.959,-0.171,-2.258,-3.540,3.601
0.085,0.959,-0.171,-2.197,-3.601,2.808
0.092,0.962,-0.174,-2.258,-3.784,2.197
0.108,0.968,-0.175,-2.258,-4.272,1.648
0.109,0.974,-0.180,-2.258,-5.188,1.221
0.100,0.965,-0.173,-2.563,-5.554,1.099
0.112,0.961,-0.178,-2.441,-5.798,0.977
0.110,0.959,-0.185,-2.258,-5.554,1.038
0.116,0.965,-0.193,-2.136,-5.249,1.038
0.130,0.959,-0.194,-2.258,-5.310,0.916
0.118,0.972,-0.190,-2.258,-5.249,1.221
0.096,0.974,-0.176,-2.014,-4.761,1.160
0.089,0.968,-0.176,-1.709,-3.906,1.099
0.102,0.962,-0.179,-1.648,-3.052,1.282
0.124,0.959,-0.181,-1.709,-2.625,1.709
0.132,0.959,-0.184,-1.770,-2.502,2.075
0.124,0.961,-0.185,-2.075,-2.380,2.747
0.130,0.969,-0.182,-2.258,-2.014,2.930
0.123,0.969,-0.188,-2.380,-1.709,3.174
0.118,0.974,-0.190,-2.258,-1.343,3.235
0.095,0.976,-0.182,-1.892,-0.122,2.625
0.077,0.972,-0.182,-1.648,1.282,1.953
0.075,0.971,-0.180,-1.099,2.197,1.282
0.098,0.966,-0.182,-1.099,2.075,0.732
0.107,0.963,-0.182,-1.465,1.282,0.183
0.094,0.964,-0.181,-1.831,0.610,-0.305
0.081,0.968,-0.174,-1.709,1.038,-0.854
0.082,0.963,-0.172,-1.465,1.831,-1.282
0.096,0.957,-0.177,-1.404,1.892,-1.770
0.111,0.959,-0.184,-1.770,1.648,-2.014
0.099,0.966,-0.183,-1.709,1.648,-2.136
0.085,0.970,-0.178,-1.404,2.380,-2.563
0.098,0.965,-0.185,-1.221,3.235,-2.869
0.118,0.964,-0.193,-1.160,3.235,-2.991
0.113,0.965,-0.194,-1.099,2.808,-3.174
0.094,0.970,-0.187,-1.221,2.991,-3.357
0.093,0.967,-0.181,-0.732,3.357,-3.601
0.111,0.965,-0.181,-0.610,3.479,-3.662
0.114,0.966,-0.185,-0.671,2.991,-3.784
0.111,0.969,-0.185,-0.793,2.563,-3.723
0.116,0.965,-0.190,-0.732,2.441,-3.845
0.121,0.969,-0.189,-0.610,2.258,-3.662
0.122,0.964,-0.190,-0.427,2.014,-3.418
0.126,0.965,-0.188,-0.549,1.526,-3.235
0.122,0.967,-0.186,-0.305,1.465,-3.052
0.117,0.964,-0.191,-0.549,1.648,-2.747
0.120,0.963,-0.187,-0.366,1.831,-2.563
0.125,0.961,-0.191,-0.366,1.953,-2.502
0.120,0.965,-0.190,-0.305,1.709,-2.258
0.116,0.969,-0.188,-0.061,1.709,-2.258
0.111,0.969,-0.185,0.061,1.892,-2.136
0.113,0.962,-0.180,0.122,2.075,-2.136
0.117,0.958,-0.181,-0.061,1.953,-2.014
0.116,0.963,-0.185,-0.183,2.014,-1.953
0.118,0.965,-0.184,0.122,1.953,-1.770
0.116,0.964,-0.187,0.305,2.258,-1.648
0.118,0.962,-0.186,0.488,2.380,-1.587
0.124,0.960,-0.186,0.427,2.075,-1.465
0.122,0.964,-0.185,0.122,1.648,-1.343
0.119,0.969,-0.183,0.305,1.465,-1.099
0.123,0.962,-0.182,0.366,1.404,-0.916
0.125,0.958,-0.182,0.366,1.099,-0.671
0.120,0.962,-0.183,0.305,0.793,-0.732
0.116,0.966,-0.180,0.244,0.977,-0.732
0.120,0.967,-0.181,0.366,1.038,-0.549
0.122,0.964,-0.181,0.183,0.671,-0.427
0.124,0.964,-0.182,0.305,0.183,-0.366
0.115,0.964,-0.184,0.183,0.183,-0.488
0.113,0.969,-0.183,0.122,0.610,-0.488
0.110,0.966,-0.182,0.305,0.916,-0.671
0.110,0.961,-0.178,0.244,0.977,-0.793
0.113,0.957,-0.177,0.061,0.793,-0.916
0.112,0.955,-0.176,0.061,0.427,-0.916

0.144,0.965,-0.216,-2.563,1.160,0.244
0.140,0.962,-0.218,-2.380,0.916,0.366
0.136,0.959,-0.215,-1.831,0.854,0.244
0.135,0.954,-0.210,-1.404,0.671,0.122
0.133,0.953,-0.209,-1.160,0.183,0.061
0.132,0.952,-0.207,-0.671,0.000,0.183
0.135,0.947,-0.205,-0.549,-0.549,0.122
0.133,0.945,-0.205,-0.671,-1.038,0.000
0.126,0.947,-0.206,-0.671,-1.038,-0.061
0.121,0.953,-0.199,-0.549,-0.610,0.061
0.121,0.961,-0.193,-0.610,-0.366,-0.183
0.125,0.967,-0.191,-0.488,0.183,-0.427
0.140,0.969,-0.190,-0.427,0.000,-0.427
0.151,0.971,-0.193,-0.793,-0.549,-0.305
0.148,0.969,-0.195,-1.221,-1.160,-0.305
0.135,0.965,-0.199,-1.404,-1.038,-0.183
0.122,0.967,-0.195,-1.160,-0.671,-0.122
0.115,0.962,-0.196,-1.465,0.366,-0.427
0.122,0.954,-0.196,-1.526,0.793,-0.854
0.129,0.946,-0.201,-1.648,0.671,-0.977
0.125,0.946,-0.201,-1.709,0.732,-1.282
0.119,0.950,-0.200,-1.709,0.854,-1.465
0.123,0.953,-0.202,-1.465,1.221,-1.404
0.134,0.955,-0.204,-1.709,1.038,-1.587
0.142,0.956,-0.207,-1.709,0.488,-1.648
0.144,0.957,-0.209,-1.831,0.000,-1.587
0.142,0.961,-0.210,-2.075,-0.061,-1.404
0.136,0.961,-0.208,-2.136,-0.061,-1.404
0.131,0.961,-0.206,-2.014,0.061,-1.343
0.126,0.959,-0.207,-1.953,0.366,-1.343
0.125,0.958,-0.204,-1.648,0.610,-1.404
0.127,0.955,-0.206,-1.648,0.610,-1.404
0.134,0.953,-0.208,-1.770,0.671,-1.404
0.140,0.954,-0.209,-1.648,0.671,-1.282
0.146,0.955,-0.212,-1.648,0.000,-1.343
0.143,0.955,-0.216,-1.770,0.610,-1.038
0.142,0.964,-0.217,-1.892,1.465,-0.793
0.142,0.971,-0.212,-1.770,2.014,-0.671
0.150,0.973,-0.205,-1.953,2.075,-0.610
0.143,0.974,-0.201,-1.892,1.526,-0.549
0.132,0.971,-0.198,-1.465,1.587,-0.549
0.123,0.964,-0.197,-1.587,1.709,-0.671
0.118,0.959,-0.197,-1.099,2.014,-0.793
0.120,0.952,-0.197,-1.160,2.319,-0.916
0.133,0.947,-0.200,-1.343,2.136,-1.038
0.144,0.948,-0.203,-1.343,1.221,-1.099
0.144,0.950,-0.208,-1.709,0.549,-1.038
0.135,0.955,-0.212,-1.892,0.427,-0.977
0.132,0.957,-0.212,-1.770,0.549,-0.916
0.134,0.954,-0.212,-1.831,0.671,-0.977
0.131,0.951,-0.211,-1.831,0.793,-1.099
0.124,0.947,-0.208,-2.014,1.099,-1.099
0.123,0.948,-0.206,-1.831,1.465,-1.038
0.125,0.945,-0.205,-2.197,1.709,-1.282
0.133,0.957,-0.204,-2.380,1.831,-1.221
0.139,0.965,-0.202,-2.380,1.892,-1.282
0.152,0.966,-0.207,-2.197,1.465,-1.160
0.154,0.965,-0.212,-2.563,0.671,-1.099
0.142,0.962,-0.213,-2.563,0.183,-0.916
0.128,0.960,-0.211,-2.686,0.366,-0.854
0.125,0.958,-0.210,-2.441,0.732,-0.916
0.129,0.954,-0.208,-2.319,1.099,-0.977
0.133,0.948,-0.211,-2.441,0.916,-1.099
0.135,0.948,-0.212,-2.441,0.610,-0.977
0.134,0.948,-0.216,-2.136,0.549,-0.793
0.131,0.950,-0.216,-2.075,0.549,-0.916
0.134,0.957,-0.216,-2.014,0.793,-0.793
0.142,0.959,-0.217,-1.587,0.916,-0.793
0.147,0.957,-0.219,-1.831,0.732,-0.610
0.146,0.961,-0.217,-1.831,0.610,-0.366
0.139,0.965,-0.215,-1.770,0.610,-0.244
0.135,0.962,-0.214,-1.648,0.854,-0.122
0.137,0.960,-0.213,-1.343,0.916,0.000
0.139,0.957,-0.211,-1.526,0.671,0.061
0.137,0.956,-0.212,-1.526,0.549,0.305
0.134,0.957,-0.214,-1.404,0.610,0.183
0.133,0.951,-0.214,-1.648,0.854,0.366
0.131,0.959,-0.215,-1.587,0.977,0.000
0.130,0.957,-0.216,-1.282,1.160,-0.061
0.132,0.958,-0.215,-0.977,1.526,0.244
0.135,0.958,-0.216,-1.221,1.526,0.366
0.137,0.961,-0.215,-1.282,1.587,0.610
0.147,0.964,-0.217,-1.526,1.526,0.854
0.150,0.987,-0.221,-1.160,1.282,0.305
0.144,0.949,-0.216,-1.160,1.160,0.244
0.139,0.952,-0.215,-1.526,0.793,0.122
0.129,0.953,-0.214,-1.587,0.671,0.183
0.120,0.950,-0.210,-1.526,1.038,0.366
0.116,0.944,-0.207,-1.404,0.916,0.183
0.115,0.944,-0.204,-1.404,0.977,0.000
0.118,0.942,-0.206,-1.282,0.854,-0.183
0.121,0.943,-0.208,-1.343,0.793,-0.610
0.123,0.947,-0.211,-1.343,0.427,-0.916
0.126,0.953,-0.212,-1.526,0.244,-1.404
0.129,0.958,-0.212,-1.587,-0.061,-2.014
0.127,0.962,-0.212,-1.770,-0.427,-2.319
0.122,0.963,-0.210,-1.648,-0.305,-2.563
0.125,0.963,-0.209,-1.526,-0.244,-2.808
0.125,0.956,-0.211,-1.404,-0.427,-3.052
0.127,0.952,-0.211,-1.404,-0.610,-3.174
0.127,0.950,-0.214,-1.465,-0.671,-3.174
0.127,0.943,-0.215,-1.526,-0.732,-3.113
0.130,0.946,-0.216,-1.770,-0.671,-3.113
0.134,0.948,-0.215,-1.831,-0.427,-2.991
0.140,0.953,-0.217,-1.648,-0.305,-2.869
0.143,0.955,-0.217,-1.709,-0.305,-2.441
0.146,0.962,-0.219,-1.709,-0.305,-2.258
0.147,0.969,-0.221,-1.892,-0.122,-2.075
0.148,0.973,-0.221,-1.892,-0.122,-1.770
0.145,0.965,-0.219,-1.892,0.000,-1.526
0.142,0.962,-0.217,-1.709,0.244,-1.343
0.136,0.955,-0.219,-1.587,0.854,-1.465
0.130,0.948,-0.219,-1.526,1.587,-1.526
0.126,0.929,-0.215,-1.709,2.319,-1.648
0.122,0.922,-0.213,-1.587,2.991,-1.404
0.126,0.916,-0.207,-1.709,3.296,-1.526
0.133,0.920,-0.206,-2.502,2.747,-1.953
0.141,0.943,-0.208,-3.235,1.831,-2.319
0.148,0.966,-0.213,-3.540,0.854,-2.197
0.158,0.989,-0.218,-3.113,0.061,-1.770
0.171,1.006,-0.227,-2.502,-0.427,-0.916
0.179,1.014,-0.238,-1.587,-0.549,-0.061
0.177,1.008,-0.248,-0.732,-0.732,0.854
0.167,0.989,-0.249,0.366,-0.610,1.465
0.154,0.961,-0.249,0.793,-0.427,1.770
0.141,0.932,-0.247,1.465,-0.549,1.770
0.127,0.909,-0.244,2.075,-0.610,1.709
0.117,0.896,-0.239,2.014,-0.793,1.404
0.114,0.900,-0.232,2.136,-0.793,1.282
0.118,0.922,-0.225,2.563,-0.916,0.916
0.128,0.952,-0.220,2.380,-0.916,0.671
0.140,0.973,-0.214,2.625,-1.343,0.549
0.148,0.989,-0.209,2.991,-1.892,0.732
0.151,0.990,-0.206,2.869,-2.258,0.977
0.152,0.987,-0.199,2.258,-2.502,0.977
0.140,0.979,-0.198,2.014,-2.625,1.038
0.130,0.965,-0.199,1.648,-2.258,0.854
0.122,0.949,-0.203,1.587,-1.770,0.610
0.118,0.938,-0.204,1.404,-0.793,0.427
0.119,0.932,-0.204,1.038,0.000,0.244
0.123,0.935,-0.203,0.610,0.244,-0.305
0.126,0.945,-0.200,0.000,0.488,-0.610
0.127,0.955,-0.198,-0.610,0.488,-0.793
0.129,0.960,-0.194,-0.916,0.244,-0.793
0.131,0.966,-0.193,-0.977,0.122,-0.610
0.136,0.967,-0.194,-0.977,0.305,-0.427
0.137,0.962,-0.198,-1.404,0.305,-0.244
0.137,0.958,-0.202,-1.648,0.000,-0.183
0.134,0.955,-0.209,-2.075,0.244,-0.244
0.134,0.950,-0.213,-2.075,0.366,-0.427
0.129,0.947,-0.218,-1.831,0.183,-0.610
0.125,0.947,-0.219,-1.709,0.061,-0.488
0.124,0.949,-0.219,-1.526,0.061,-0.305
0.123,0.950,-0.221,-1.038,0.366,-0.366
0.125,0.953,-0.223,-0.977,0.305,-0.366
0.137,0.952,-0.219,-1.038,0.183,-0.183
0.153,0.960,-0.218,-0.610,-0.671,0.000
0.154,0.959,-0.218,-0.732,-1.343,-0.122
0.148,0.965,-0.218,-0.854,-1.587,-0.183
0.141,0.970,-0.217,-0.305,-1.587,-0.183
0.135,0.968,-0.217,-0.244,-1.404,0.122
0.136,0.961,-0.217,-0.061,-1.404,0.305
0.135,0.957,-0.216,0.305,-1.709,0.305
0.134,0.955,-0.217,0.427,-1.831,0.366
0.133,0.952,-0.215,0.427,-1.892,0.366
0.136,0.948,-0.213,0.305,-2.136,0.183
0.143,0.949,-0.212,0.000,-2.869,-0.122
0.150,0.947,-0.210,-0.549,-4.028,-0.183
0.123,0.964,-0.208,-0.488,-4.150,0.488
0.107,0.969,-0.210,0.427,-2.502,0.488
0.123,0.960,-0.209,0.305,-1.221,0.427
0.142,0.961,-0.208,0.366,-1.160,0.366
0.148,0.957,-0.208,0.000,-1.465,0.366
0.142,0.958,-0.205,-0.244,-1.343,0.427
0.136,0.958,-0.202,-0.549,-0.854,0.122
0.134,0.960,-0.200,-0.427,-0.549,-0.244
0.135,0.959,-0.198,-0.610,-0.244,-0.244
0.132,0.959,-0.199,-0.854,-0.061,-0.183
0.133,0.960,-0.195,-1.160,0.427,-0.061
0.136,0.962,-0.198,-1.038,0.305,-0.183
0.130,0.959,-0.203,-1.160,0.305,-0.244
0.128,0.958,-0.207,-1.160,0.549,-0.305
0.130,0.956,-0.209,-1.221,0.854,-0.549
0.136,0.956,-0.209,-1.221,0.671,-0.549
0.136,0.954,-0.208,-1.343,0.427,-0.549
0.136,0.955,-0.208,-1.404,0.488,-0.732
0.132,0.956,-0.210,-1.465,0.732,-0.671
0.130,0.960,-0.208,-1.404,1.038,-0.610
0.132,0.959,-0.210,-1.282,1.038,-0.732
0.132,0.959,-0.211,-1.221,1.038,-0.671
0.132,0.956,-0.212,-1.343,0.977,-0.610
0.135,0.956,-0.211,-1.099,0.732,-0.793
0.135,0.955,-0.212,-1.038,0.793,-0.610
0.132,0.956,-0.212,-1.038,0.610,-0.671
0.128,0.958,-0.212,-0.916,0.671,-0.610
0.127,0.957,-0.212,-0.610,1.099,-0.610
0.131,0.959,-0.210,-0.610,0.977,-0.366
0.138,0.959,-0.211,-0.610,0.977,-0.366
0.142,0.958,-0.211,-0.427,0.732,-0.305
0.141,0.959,-0.212,-0.305,0.671,-0.244
0.140,0.957,-0.212,-0.427,0.671,-0.366
0.138,0.955,-0.213,-0.732,0.610,-0.183
0.134,0.956,-0.209,-0.854,0.671,-0.244
0.130,0.956,-0.206,-0.793,0.732,-0.427
0.130,0.959,-0.205,-0.793,0.854,-0.427
0.128,0.959,-0.203,-0.671,1.099,-0.488
0.131,0.959,-0.204,-0.916,1.038,-0.610
0.135,0.958,-0.203,-0.916,0.916,-0.549
0.134,0.954,-0.206,-1.282,0.793,-0.488
0.130,0.954,-0.207,-1.099,0.488,-0.732
0.129,0.955,-0.208,-1.465,0.671,-0.916
0.128,0.956,-0.209,-1.526,0.916,-0.916
0.128,0.958,-0.207,-1.465,1.038,-0.916
0.130,0.958,-0.207,-1.343,1.160,-0.977
0.131,0.959,-0.208,-1.343,1.099,-0.977
0.134,0.957,-0.210,-1.282,1.160,-1.038
0.134,0.957,-0.211,-1.465,0.854,-1.099
0.132,0.957,-0.214,-1.282,1.160,-0.977
0.133,0.958,-0.212,-1.160,0.977,-1.099
0.136,0.957,-0.213,-1.160,0.977,-0.977
0.138,0.957,-0.212,-1.160,0.488,-0.977
0.135,0.956,-0.213,-1.038,0.305,-0.854
0.131,0.957,-0.213,-0.854,0.549,-0.793
0.130,0.955,-0.214,-0.671,0.732,-0.854
0.131,0.957,-0.212,-0.793,0.732,-0.916
0.132,0.955,-0.212,-0.793,0.671,-0.793
0.135,0.957,-0.208,-0.854,0.610,-0.732
0.136,0.957,-0.209,-0.671,0.549,-0.671
0.135,0.957,-0.209,-0.793,0.488,-0.610
0.136,0.958,-0.211,-0.916,0.366,-0.732
0.134,0.958,-0.209,-0.977,0.366,-0.488
0.132,0.958,-0.209,-1.038,0.427,-0.366
0.132,0.958,-0.208,-1.160,0.549,-0.366
0.131,0.958,-0.212,-0.854,0.305,-0.305
0.130,0.957,-0.210,-0.671,0.488,-0.366
0.132,0.957,-0.211,-0.793,0.916,-0.427
0.133,0.957,-0.212,-0.854,0.977,-0.488
0.136,0.958,-0.210,-0.916,0.854,-0.427

0.126,0.957,-0.210,-0.610,0.549,-0.977
0.127,0.957,-0.209,-0.793,0.671,-0.916
0.132,0.957,-0.208,-0.610,0.549,-0.793
0.137,0.959,-0.209,-0.732,0.427,-0.916
0.135,0.959,-0.209,-0.854,0.427,-0.732
0.134,0.960,-0.208,-0.732,0.427,-0.488
0.130,0.960,-0.208,-0.671,0.427,-0.488
0.129,0.958,-0.207,-0.610,0.305,-0.610
0.131,0.958,-0.206,-0.366,0.427,-0.671
0.132,0.956,-0.207,-0.549,0.305,-0.488
0.130,0.956,-0.208,-0.732,0.366,-0.610
0.127,0.959,-0.209,-0.427,0.549,-0.610
0.128,0.958,-0.209,-0.488,0.488,-0.671
0.130,0.958,-0.207,-0.610,0.427,-0.732
0.131,0.959,-0.205,-0.549,0.427,-0.732
0.128,0.956,-0.205,-0.671,0.610,-0.732
0.130,0.957,-0.203,-0.671,0.610,-0.854
0.131,0.956,-0.204,-0.793,0.183,-0.854
0.129,0.958,-0.206,-0.916,0.122,-0.793
0.129,0.959,-0.207,-0.793,0.305,-0.793
0.131,0.959,-0.207,-0.732,0.488,-0.854
0.131,0.960,-0.208,-0.854,0.488,-0.854
0.131,0.957,-0.208,-0.610,0.427,-0.854
0.131,0.957,-0.208,-0.549,0.366,-0.916
0.131,0.957,-0.208,-0.671,0.244,-0.916
0.130,0.957,-0.208,-0.732,0.549,-0.854
0.129,0.957,-0.208,-0.610,0.610,-0.732
0.133,0.958,-0.207,-0.793,0.671,-0.732
0.134,0.958,-0.208,-0.854,0.549,-0.549
0.135,0.958,-0.207,-0.671,0.305,-0.549
0.133,0.958,-0.207,-0.977,0.549,-0.549
0.130,0.959,-0.207,-0.916,0.427,-0.610
0.129,0.958,-0.207,-1.099,0.366,-0.854
0.129,0.958,-0.207,-1.099,0.549,-0.793
0.130,0.958,-0.207,-0.854,0.671,-0.427
0.131,0.957,-0.209,-0.671,0.549,-0.305
0.130,0.960,-0.209,-0.488,0.549,-0.305
0.131,0.959,-0.210,-0.488,0.549,-0.305
0.135,0.959,-0.210,-0.610,0.244,-0.305
0.133,0.958,-0.209,-0.671,0.122,-0.427
0.127,0.958,-0.208,-0.488,0.244,-0.427
0.124,0.958,-0.208,-0.305,0.610,-0.427
0.126,0.955,-0.206,-0.488,0.549,-0.305
0.132,0.956,-0.207,-0.427,0.366,-0.488
0.132,0.958,-0.206,-0.305,0.183,-0.671
0.128,0.959,-0.204,-0.427,0.122,-0.671
0.126,0.959,-0.203,-0.488,0.183,-0.671
0.126,0.959,-0.202,-0.610,0.183,-0.671
0.131,0.959,-0.204,-0.366,0.305,-0.610
0.133,0.956,-0.205,-0.366,0.244,-0.488
0.133,0.956,-0.207,-0.427,0.305,-0.610
0.128,0.958,-0.206,-0.610,0.427,-0.671
0.126,0.957,-0.205,-0.610,0.671,-0.671
0.127,0.956,-0.204,-0.610,0.793,-0.793
0.129,0.958,-0.203,-0.610,0.671,-0.671
0.130,0.959,-0.204,-0.549,0.671,-0.732
0.130,0.958,-0.205,-0.916,0.488,-0.671
0.130,0.959,-0.207,-0.977,0.305,-0.732
0.128,0.958,-0.208,-0.793,0.305,-0.610
0.127,0.958,-0.208,-0.549,0.732,-0.732
0.127,0.957,-0.206,-0.671,0.916,-0.793
0.131,0.958,-0.206,-0.732,0.793,-0.793
0.134,0.961,-0.204,-0.732,0.732,-0.793
0.134,0.962,-0.207,-0.793,0.671,-0.671
0.133,0.959,-0.208,-0.793,0.488,-0.549
0.130,0.958,-0.209,-0.610,0.549,-0.610
0.127,0.957,-0.207,-0.671,0.549,-0.671
0.129,0.957,-0.207,-0.488,0.549,-0.610
0.133,0.958,-0.207,-0.671,0.488,-0.610
0.132,0.963,-0.207,-0.916,0.488,-0.671
0.130,0.960,-0.207,-0.793,0.488,-0.549
0.132,0.959,-0.208,-0.732,0.488,-0.427
0.132,0.958,-0.208,-0.610,0.427,-0.427
0.129,0.959,-0.207,-0.549,0.732,-0.427
0.128,0.957,-0.204,-0.732,0.793,-0.549
0.129,0.958,-0.205,-0.977,0.671,-0.549
0.130,0.957,-0.204,-0.916,0.610,-0.427
0.123,0.961,-0.203,-0.671,0.793,-0.549
0.130,0.963,-0.200,-0.549,0.854,-0.366
0.132,0.955,-0.203,-0.977,0.732,-0.427
0.131,0.957,-0.202,-0.977,0.610,-0.427
0.126,0.960,-0.203,-0.793,0.488,-0.427
0.127,0.956,-0.204,-1.099,0.671,-0.488
0.127,0.958,-0.206,-0.916,0.793,-0.549
0.127,0.961,-0.206,-0.977,0.916,-0.549
0.129,0.956,-0.207,-0.916,0.916,-0.549
0.129,0.956,-0.207,-1.099,0.793,-0.610
0.124,0.959,-0.205,-1.404,1.038,-0.732
0.123,0.957,-0.202,-1.343,1.282,-0.854
0.125,0.958,-0.200,-1.343,1.709,-0.793
0.127,0.956,-0.198,-1.587,1.587,-0.854
0.128,0.957,-0.199,-1.892,1.587,-0.854
0.127,0.958,-0.200,-2.014,1.404,-0.854
0.129,0.960,-0.202,-2.319,1.648,-0.671
0.130,0.961,-0.203,-2.258,1.648,-0.549
0.131,0.959,-0.205,-2.136,1.709,-0.610
0.128,0.958,-0.208,-2.136,1.953,-0.549
0.129,0.956,-0.211,-2.014,1.892,-0.549
0.133,0.956,-0.213,-1.953,1.709,-0.244
0.133,0.958,-0.214,-2.075,1.526,-0.122
0.132,0.960,-0.216,-1.770,1.465,0.061
0.133,0.963,-0.218,-1.221,1.465,0.183
0.134,0.964,-0.219,-0.732,1.343,0.244
0.135,0.962,-0.220,-0.610,1.038,0.122
0.134,0.960,-0.222,-0.305,0.793,0.366
0.130,0.957,-0.223,-0.183,0.732,0.488
0.130,0.957,-0.220,0.183,0.549,0.488
0.131,0.961,-0.219,0.427,0.610,0.610
0.131,0.953,-0.219,0.549,0.427,0.549
0.123,0.964,-0.210,1.038,0.305,0.427
0.123,0.952,-0.211,1.221,0.610,0.427
0.124,0.953,-0.205,1.099,0.549,0.244
0.127,0.958,-0.205,1.099,0.488,0.305
0.127,0.960,-0.201,0.977,0.305,0.305
0.126,0.960,-0.199,1.099,0.305,0.244
0.126,0.958,-0.199,0.793,0.183,0.183
0.122,0.958,-0.201,0.793,0.183,0.061
0.120,0.957,-0.201,0.549,0.427,-0.061
0.118,0.957,-0.199,0.549,0.549,-0.305
0.123,0.958,-0.196,0.366,0.793,-0.488
0.126,0.960,-0.192,0.000,1.038,-0.427
0.127,0.958,-0.191,-0.305,1.099,-0.366
0.126,0.960,-0.192,-0.549,1.099,-0.427
0.125,0.958,-0.193,-0.793,1.099,-0.366
0.125,0.958,-0.196,-1.160,1.099,-0.366
0.124,0.960,-0.197,-1.587,1.038,-0.427
0.123,0.961,-0.199,-1.648,1.221,-0.488
0.123,0.961,-0.200,-1.709,1.587,-0.488
0.126,0.960,-0.202,-1.831,1.526,-0.549
0.125,0.958,-0.204,-1.831,1.343,-0.610
0.125,0.961,-0.205,-1.831,1.221,-0.549
0.126,0.959,-0.208,-1.709,1.343,-0.671
0.126,0.958,-0.209,-1.587,1.404,-0.610
0.126,0.958,-0.210,-1.343,1.221,-0.610
0.126,0.958,-0.211,-1.282,1.221,-0.671
0.126,0.959,-0.211,-1.160,1.160,-0.610
0.126,0.959,-0.211,-0.671,1.038,-0.610
0.128,0.960,-0.211,-0.610,0.671,-0.427
0.127,0.960,-0.212,-0.366,0.427,-0.427
0.129,0.961,-0.211,-0.183,0.244,-0.366
0.128,0.959,-0.212,0.000,0.122,-0.366
0.127,0.957,-0.211,0.244,0.061,-0.427
0.124,0.957,-0.210,0.488,-0.061,-0.366
0.123,0.958,-0.209,0.793,-0.061,-0.366
0.125,0.958,-0.207,0.549,0.061,-0.427
0.126,0.958,-0.207,0.549,0.061,-0.305
0.126,0.959,-0.203,0.671,-0.061,-0.305
0.125,0.960,-0.203,0.427,0.000,-0.366
0.124,0.959,-0.203,0.427,0.061,-0.305
0.124,0.958,-0.201,0.366,0.183,-0.244
0.124,0.960,-0.197,0.122,0.244,-0.305
0.122,0.959,-0.198,0.244,0.427,-0.122
0.125,0.960,-0.197,0.183,0.366,-0.183
0.125,0.958,-0.197,-0.122,0.305,-0.305
0.123,0.958,-0.198,-0.183,0.427,-0.244
0.123,0.959,-0.198,-0.549,0.732,-0.305
0.123,0.960,-0.198,-0.549,0.793,-0.366
0.124,0.960,-0.197,-0.671,0.671,-0.549
0.123,0.959,-0.198,-0.977,0.671,-0.549
0.123,0.960,-0.198,-0.977,0.916,-0.488
0.123,0.959,-0.200,-0.854,0.732,-0.610
0.123,0.958,-0.201,-1.038,0.732,-0.549
0.123,0.958,-0.203,-1.221,0.732,-0.671
0.124,0.960,-0.202,-1.038,0.977,-0.732
0.123,0.960,-0.203,-1.343,0.977,-0.732
0.124,0.959,-0.202,-1.282,1.160,-0.854
0.126,0.960,-0.203,-1.099,0.916,-0.793
0.125,0.959,-0.203,-1.160,0.671,-0.854
0.121,0.958,-0.202,-1.221,0.793,-0.916
0.120,0.959,-0.202,-1.282,1.038,-0.854
0.122,0.959,-0.203,-1.404,1.038,-1.099
0.124,0.959,-0.205,-1.282,1.099,-1.282
0.123,0.960,-0.206,-1.099,1.221,-1.038
0.123,0.960,-0.206,-1.038,1.221,-1.099
0.124,0.959,-0.206,-1.099,1.282,-1.343
0.122,0.959,-0.205,-1.099,1.343,-1.282
0.124,0.958,-0.204,-0.916,1.587,-1.221
0.125,0.961,-0.204,-0.977,1.465,-1.038
0.128,0.962,-0.206,-0.854,1.404,-0.854
0.130,0.961,-0.203,-0.732,1.343,-0.732
0.133,0.958,-0.204,-0.977,1.099,-0.671
0.129,0.958,-0.204,-0.854,0.854,-0.488
0.126,0.961,-0.204,-0.977,0.916,-0.610
0.126,0.960,-0.204,-0.916,0.854,-0.427
0.125,0.960,-0.205,-0.793,0.854,-0.427
0.123,0.961,-0.205,-0.793,0.854,-0.427
0.123,0.961,-0.203,-0.732,0.854,-0.366
0.125,0.959,-0.203,-0.610,0.732,-0.549
0.125,0.959,-0.202,-1.038,0.671,-0.610
0.123,0.958,-0.201,-1.038,0.732,-0.610
0.124,0.959,-0.200,-0.916,0.854,-0.671
0.123,0.959,-0.200,-0.854,0.732,-0.671
0.123,0.958,-0.201,-0.793,0.488,-0.549
0.123,0.959,-0.204,-0.854,0.610,-0.610
0.124,0.960,-0.205,-0.854,0.732,-0.671
0.126,0.959,-0.205,-0.854,0.549,-0.671
0.126,0.959,-0.205,-0.916,0.549,-0.793
0.125,0.957,-0.205,-0.916,0.549,-0.732
0.125,0.957,-0.205,-0.916,0.732,-0.732
0.123,0.959,-0.202,-0.854,0.732,-0.854
0.123,0.960,-0.201,-0.977,0.610,-0.793
0.126,0.960,-0.201,-0.854,0.671,-0.671
0.125,0.960,-0.202,-0.854,0.549,-0.610
0.124,0.959,-0.204,-0.732,0.549,-0.549
0.124,0.959,-0.203,-0.916,0.549,-0.610
0.125,0.958,-0.204,-1.099,0.549,-0.610
0.125,0.960,-0.204,-1.038,0.610,-0.671
0.124,0.960,-0.204,-0.977,0.610,-0.549
0.124,0.960,-0.203,-1.099,0.671,-0.610
0.125,0.961,-0.202,-0.977,0.793,-0.610
0.125,0.959,-0.201,-0.793,0.671,-0.610
0.124,0.959,-0.204,-0.916,0.610,-0.671
0.123,0.960,-0.205,-1.038,0.793,-0.671
0.124,0.957,-0.206,-1.038,0.732,-0.732
0.126,0.958,-0.207,-0.854,0.671,-0.549
0.126,0.958,-0.205,-0.977,0.610,-0.549
0.127,0.959,-0.204,-0.916,0.610,-0.671
0.125,0.961,-0.203,-0.854,0.732,-0.732
0.123,0.961,-0.203,-1.160,0.671,-0.793
0.124,0.958,-0.203,-0.977,0.610,-0.732
0.125,0.958,-0.204,-0.732,0.549,-0.671
0.125,0.959,-0.204,-0.854,0.671,-0.671
0.125,0.959,-0.205,-0.916,0.732,-0.732
0.125,0.960,-0.205,-0.854,0.671,-0.854
0.125,0.962,-0.206,-1.099,0.732,-0.916
0.125,0.958,-0.206,-0.916,0.671,-0.610
0.125,0.959,-0.203,-0.793,0.549,-0.671
0.125,0.959,-0.204,-0.916,0.732,-0.671
0.123,0.959,-0.204,-0.854,0.610,-0.671
0.123,0.959,-0.203,-0.793,0.793,-0.671
0.124,0.961,-0.204,-0.977,0.549,-0.793
0.124,0.958,-0.203,-0.793,0.549,-0.793
0.124,0.960,-0.203,-0.671,0.671,-0.610
0.124,0.959,-0.204,-0.793,0.549,-0.671
0.122,0.957,-0.205,-0.854,0.549,-0.671
0.123,0.958,-0.204,-0.854,0.549,-0.549
0.125,0.962,-0.204,-0.916,0.610,-0.732
0.128,0.961,-0.204,-0.793,0.793,-0.610

0.123,0.960,-0.202,-0.916,0.793,-0.671
0.123,0.960,-0.201,-1.099,0.793,-0.793
0.122,0.959,-0.200,-1.038,0.488,-0.916
0.120,0.958,-0.203,-1.160,0.427,-0.793
0.120,0.959,-0.203,-1.099,0.671,-0.977
0.122,0.961,-0.204,-0.916,0.671,-0.977
0.125,0.960,-0.204,-1.038,0.671,-0.916
0.125,0.957,-0.203,-0.977,0.549,-0.977
0.123,0.957,-0.204,-1.038,0.427,-0.977
0.119,0.959,-0.206,-1.038,0.305,-0.977
0.119,0.960,-0.204,-0.916,0.488,-1.038
0.125,0.962,-0.202,-1.099,0.671,-0.793
0.131,0.962,-0.203,-1.038,0.671,-0.732
0.129,0.962,-0.205,-0.916,0.488,-0.671
0.125,0.961,-0.206,-1.099,0.549,-0.671
0.121,0.959,-0.207,-0.854,0.366,-0.671
0.120,0.959,-0.205,-0.732,0.610,-0.671
0.123,0.958,-0.203,-0.671,0.610,-0.732
0.124,0.958,-0.201,-0.854,0.671,-0.732
0.123,0.960,-0.201,-0.916,0.671,-0.732
0.121,0.961,-0.204,-0.732,0.549,-0.610
0.122,0.960,-0.204,-0.732,0.610,-0.671
0.123,0.959,-0.203,-0.732,0.427,-0.732
0.123,0.958,-0.203,-0.793,0.549,-0.732
0.123,0.958,-0.203,-0.854,0.671,-0.671
0.122,0.959,-0.203,-0.854,0.366,-0.854
0.121,0.958,-0.203,-0.793,0.366,-0.854
0.122,0.959,-0.203,-0.854,0.427,-0.793
0.121,0.960,-0.203,-0.854,0.549,-0.854
0.122,0.959,-0.203,-0.732,0.610,-0.854
0.123,0.959,-0.203,-0.977,0.610,-0.793
0.123,0.958,-0.204,-0.854,0.610,-0.977
0.123,0.958,-0.204,-0.916,0.427,-1.038
0.123,0.958,-0.204,-0.854,0.305,-0.977
0.123,0.959,-0.204,-0.793,0.244,-0.916
0.122,0.960,-0.203,-0.671,0.427,-0.977
0.122,0.961,-0.203,-0.732,0.671,-0.854
0.124,0.959,-0.204,-0.793,0.671,-0.610
0.124,0.958,-0.203,-0.610,0.488,-0.549
0.123,0.959,-0.204,-0.671,0.549,-0.549
0.123,0.959,-0.203,-0.793,0.610,-0.671
0.122,0.960,-0.203,-0.793,0.732,-0.732
0.124,0.961,-0.204,-0.977,0.732,-0.610
0.122,0.959,-0.203,-0.732,0.488,-0.671
0.123,0.959,-0.203,-0.732,0.610,-0.671
0.122,0.958,-0.202,-0.610,0.610,-0.549
0.123,0.960,-0.203,-0.671,0.549,-0.549
0.124,0.960,-0.203,-0.793,0.549,-0.610
0.123,0.962,-0.204,-0.977,0.549,-0.549
0.123,0.961,-0.202,-0.916,0.793,-0.732
0.123,0.959,-0.203,-0.793,0.732,-0.671
0.122,0.957,-0.203,-0.854,0.549,-0.549
0.123,0.958,-0.204,-0.732,0.549,-0.549
0.122,0.960,-0.203,-0.916,0.854,-0.366
0.122,0.963,-0.203,-0.977,0.793,-0.610
0.124,0.961,-0.202,-0.977,0.793,-0.854
0.123,0.960,-0.201,-0.732,0.549,-0.671
0.121,0.958,-0.202,-0.916,0.610,-0.732
0.120,0.958,-0.203,-0.854,0.671,-0.732
0.122,0.958,-0.203,-0.793,0.671,-0.732
0.122,0.962,-0.205,-1.038,0.488,-0.732
0.122,0.961,-0.204,-0.916,0.793,-0.854
0.124,0.960,-0.202,-0.793,0.671,-0.916
0.124,0.959,-0.202,-0.854,0.671,-0.854
0.123,0.958,-0.203,-0.916,0.549,-0.793
0.121,0.959,-0.205,-0.671,0.671,-0.793
0.121,0.961,-0.206,-0.854,0.793,-0.916
0.125,0.959,-0.205,-0.732,0.671,-0.732
0.128,0.961,-0.205,-0.671,0.793,-0.671
0.127,0.963,-0.204,-0.793,0.671,-0.488
0.126,0.961,-0.204,-0.732,0.671,-0.549
0.123,0.959,-0.204,-0.732,0.549,-0.427
0.121,0.961,-0.204,-0.977,0.610,-0.488
0.123,0.960,-0.203,-0.549,0.549,-0.427
0.120,0.958,-0.202,-0.427,0.610,-0.366
0.120,0.958,-0.203,-0.793,0.854,-0.549
0.122,0.959,-0.205,-0.732,1.038,-0.488
0.124,0.959,-0.203,-0.671,1.099,-0.488
0.121,0.960,-0.201,-0.916,0.916,-0.549
0.121,0.962,-0.200,-0.916,1.038,-0.427
0.121,0.961,-0.199,-0.916,1.160,-0.427
0.123,0.958,-0.199,-0.977,1.221,-0.549
0.122,0.958,-0.198,-0.977,1.160,-0.427
0.119,0.958,-0.200,-1.221,1.343,-0.549
0.117,0.962,-0.201,-1.343,1.404,-0.549
0.120,0.961,-0.202,-1.160,1.465,-0.549
0.126,0.960,-0.205,-1.221,1.282,-0.549
0.124,0.959,-0.205,-1.160,1.221,-0.610
0.122,0.956,-0.206,-1.282,1.282,-0.610
0.118,0.951,-0.208,-1.343,1.282,-0.732
0.119,0.953,-0.205,-1.465,1.587,-0.854
0.120,0.958,-0.204,-1.099,1.587,-0.854
0.125,0.963,-0.205,-1.038,1.404,-0.916
0.126,0.962,-0.204,-1.221,0.916,-0.793
0.124,0.962,-0.206,-1.038,0.732,-0.916
0.122,0.958,-0.207,-1.099,0.732,-0.916
0.120,0.958,-0.208,-1.343,0.916,-1.038
0.121,0.958,-0.206,-1.160,0.793,-0.916
0.122,0.958,-0.204,-0.977,0.793,-1.038
0.121,0.956,-0.203,-1.221,0.854,-1.038
0.119,0.958,-0.201,-1.404,0.854,-1.221
0.120,0.962,-0.201,-1.404,0.977,-1.221
0.120,0.963,-0.200,-1.282,1.038,-1.038
0.125,0.964,-0.202,-1.404,0.977,-0.916
0.127,0.964,-0.202,-1.465,0.916,-0.854
0.127,0.958,-0.205,-1.526,0.854,-0.732
0.122,0.954,-0.206,-1.648,0.854,-0.854
0.119,0.952,-0.207,-1.770,1.465,-0.916
0.119,0.952,-0.208,-1.892,1.526,-0.916
0.123,0.957,-0.206,-1.892,1.465,-1.099
0.122,0.961,-0.206,-1.953,1.343,-1.099
0.124,0.964,-0.205,-1.892,1.343,-1.038
0.124,0.962,-0.208,-1.526,1.282,-1.099
0.124,0.959,-0.209,-1.526,0.977,-1.038
0.122,0.957,-0.211,-1.587,0.977,-1.099
0.123,0.957,-0.212,-1.526,0.916,-1.160
0.126,0.959,-0.213,-1.343,0.916,-0.977
0.127,0.960,-0.212,-0.916,0.671,-0.916
0.127,0.960,-0.213,-0.793,0.427,-0.854
0.128,0.958,-0.215,-0.732,0.183,-0.854
0.126,0.954,-0.215,-0.610,0.061,-0.793
0.123,0.958,-0.215,-0.488,0.366,-0.854
0.122,0.961,-0.212,-0.244,0.610,-0.793
0.126,0.960,-0.208,-0.183,0.793,-0.610
0.129,0.963,-0.205,-0.061,0.549,-0.549
0.129,0.964,-0.203,-0.122,0.122,-0.427
0.126,0.963,-0.204,-0.244,-0.061,-0.366
0.125,0.960,-0.205,-0.122,0.305,-0.244
0.122,0.958,-0.207,-0.427,0.183,-0.183
0.122,0.958,-0.207,-0.488,-0.061,-0.122
0.121,0.957,-0.205,-0.549,0.061,-0.244
0.122,0.958,-0.204,-0.732,0.305,-0.488
0.119,0.958,-0.204,-0.793,0.366,-0.549
0.120,0.959,-0.202,-0.671,0.488,-0.610
0.119,0.959,-0.201,-0.793,0.488,-0.549
0.119,0.959,-0.199,-0.916,0.671,-0.610
0.120,0.959,-0.198,-1.221,0.793,-0.732
0.121,0.957,-0.198,-1.343,0.732,-0.854
0.121,0.958,-0.200,-1.526,0.916,-0.916
0.121,0.959,-0.203,-1.709,0.671,-0.854
0.121,0.958,-0.205,-1.465,0.671,-0.916
0.121,0.958,-0.205,-1.343,0.732,-1.038
0.121,0.958,-0.206,-1.526,0.854,-0.916
0.122,0.957,-0.206,-1.526,1.038,-1.038
0.121,0.957,-0.206,-1.526,0.977,-1.282
0.122,0.958,-0.210,-1.282,0.854,-1.160
0.122,0.957,-0.211,-1.343,1.099,-1.038
0.124,0.959,-0.211,-1.465,1.221,-1.099
0.127,0.959,-0.210,-1.221,1.221,-1.038
0.127,0.959,-0.210,-1.221,0.977,-1.038
0.125,0.959,-0.210,-1.038,0.793,-0.854
0.124,0.959,-0.211,-0.977,0.732,-0.671
0.124,0.959,-0.211,-0.671,0.671,-0.854
0.125,0.959,-0.211,-0.610,0.549,-0.610
0.125,0.959,-0.210,-0.549,0.488,-0.549
0.125,0.958,-0.211,-0.671,0.549,-0.610
0.123,0.958,-0.210,-0.610,0.488,-0.671
0.123,0.958,-0.209,-0.427,0.488,-0.549
0.122,0.959,-0.208,-0.183,0.427,-0.610
0.125,0.959,-0.206,-0.244,0.366,-0.610
0.124,0.959,-0.205,-0.610,0.244,-0.549
0.123,0.960,-0.204,-0.610,0.427,-0.610
0.122,0.961,-0.206,-0.610,0.488,-0.610
0.122,0.958,-0.205,-0.549,0.366,-0.671
0.123,0.958,-0.206,-0.488,0.305,-0.488
0.123,0.958,-0.206,-0.671,0.549,-0.610
0.123,0.958,-0.205,-0.671,0.427,-0.610
0.124,0.958,-0.205,-0.854,0.549,-0.671
0.122,0.960,-0.204,-0.854,0.671,-0.793
0.121,0.959,-0.204,-1.038,0.854,-0.671
0.122,0.959,-0.201,-0.916,0.977,-0.610
0.124,0.961,-0.204,-0.854,0.671,-0.610
0.125,0.959,-0.207,-0.916,0.610,-0.732
0.125,0.958,-0.209,-1.099,0.488,-0.549
0.124,0.959,-0.207,-1.099,0.549,-0.671
0.123,0.958,-0.208,-1.099,0.732,-0.732
0.123,0.958,-0.208,-0.916,0.732,-0.732
0.123,0.958,-0.208,-0.977,0.610,-0.671
0.123,0.959,-0.208,-0.732,0.732,-0.549
0.122,0.958,-0.208,-0.854,0.732,-0.549
0.123,0.958,-0.206,-0.977,0.732,-0.732
0.124,0.957,-0.208,-0.732,0.854,-0.732
0.125,0.960,-0.209,-0.854,0.916,-0.610
0.125,0.960,-0.208,-0.916,0.793,-0.671
0.126,0.959,-0.207,-0.793,0.732,-0.488
0.124,0.959,-0.204,-0.854,0.793,-0.427
0.123,0.958,-0.204,-0.793,0.671,-0.610
0.122,0.958,-0.205,-0.977,0.305,-0.488
0.121,0.959,-0.207,-0.916,0.671,-0.549
0.122,0.959,-0.208,-0.732,0.732,-0.610
0.123,0.960,-0.208,-0.793,0.671,-0.549
0.124,0.959,-0.209,-0.793,0.793,-0.732
0.124,0.959,-0.208,-0.610,0.854,-0.671
0.122,0.957,-0.208,-0.854,0.671,-0.732
0.122,0.958,-0.206,-0.732,0.732,-0.671
0.122,0.958,-0.206,-0.671,0.610,-0.732
0.122,0.959,-0.207,-0.793,0.671,-0.732
0.122,0.961,-0.207,-0.793,0.732,-0.916
0.124,0.960,-0.207,-0.671,0.671,-1.099
0.125,0.958,-0.208,-0.671,0.488,-0.916
0.125,0.960,-0.208,-0.793,0.488,-0.916
0.122,0.958,-0.207,-0.732,0.366,-0.793
0.122,0.958,-0.207,-0.671,0.610,-0.732
0.122,0.961,-0.206,-0.732,0.793,-0.671
0.124,0.961,-0.206,-0.427,0.732,-0.610
0.126,0.958,-0.205,-0.671,0.427,-0.610
0.124,0.958,-0.205,-0.793,0.732,-0.671
0.123,0.959,-0.205,-0.793,0.610,-0.610
0.123,0.959,-0.207,-0.854,0.732,-0.610
0.124,0.960,-0.207,-0.793,0.793,-0.671
0.124,0.958,-0.208,-0.793,0.671,-0.610
0.125,0.959,-0.207,-0.916,0.610,-0.488
0.124,0.959,-0.208,-0.916,0.732,-0.549
0.124,0.960,-0.208,-0.977,0.549,-0.671
0.123,0.959,-0.208,-0.732,0.549,-0.610
0.123,0.961,-0.208,-0.854,0.854,-0.549
0.124,0.958,-0.208,-0.732,0.610,-0.610
0.125,0.959,-0.208,-0.732,0.671,-0.488
0.125,0.959,-0.208,-0.610,0.732,-0.488
0.125,0.959,-0.209,-0.793,0.610,-0.427
0.126,0.958,-0.209,-0.854,0.549,-0.488
0.122,0.959,-0.208,-1.038,0.549,-0.549
0.121,0.958,-0.208,-0.793,0.427,-0.610
0.122,0.958,-0.207,-0.732,0.549,-0.488
0.124,0.959,-0.206,-0.732,0.427,-0.427
0.123,0.959,-0.206,-0.671,0.549,-0.549
0.124,0.959,-0.206,-0.793,0.549,-0.488
0.123,0.960,-0.207,-0.916,0.549,-0.610
0.122,0.959,-0.206,-0.916,0.610,-0.671
0.121,0.958,-0.206,-0.854,0.671,-0.610
0.121,0.958,-0.207,-0.793,0.732,-0.610
0.122,0.958,-0.207,-0.854,0.610,-0.732
0.123,0.958,-0.206,-0.793,0.610,-0.916
0.122,0.959,-0.205,-1.038,0.549,-0.916
0.122,0.958,-0.205,-0.916,0.427,-0.793
0.122,0.958,-0.206,-0.732,0.427,-0.916
0.120,0.958,-0.208,-0.916,0.549,-0.916
0.122,0.958,-0.209,-0.916,0.732,-0.793

0.121,0.958,-0.204,-0.854,0.488,-0.854
0.122,0.958,-0.203,-0.854,0.549,-0.793
0.125,0.960,-0.204,-0.854,0.427,-0.793
0.125,0.962,-0.204,-0.732,0.427,-0.732
0.125,0.961,-0.204,-0.732,0.427,-0.610
0.123,0.959,-0.205,-0.854,0.610,-0.610
0.120,0.960,-0.204,-0.732,0.671,-0.732
0.122,0.958,-0.205,-0.732,0.610,-0.793
0.123,0.958,-0.205,-0.916,0.549,-0.610
0.122,0.958,-0.207,-0.793,0.488,-0.671
0.122,0.959,-0.205,-0.854,0.549,-0.671
0.122,0.962,-0.205,-0.854,0.488,-0.793
0.123,0.962,-0.205,-0.854,0.549,-0.793
0.122,0.959,-0.203,-0.793,0.366,-0.732
0.121,0.957,-0.204,-0.916,0.549,-0.732
0.121,0.957,-0.204,-0.793,0.549,-0.916
0.123,0.958,-0.205,-0.916,0.549,-0.793
0.124,0.960,-0.206,-0.854,0.427,-0.793
0.124,0.962,-0.204,-0.732,0.366,-0.854
0.124,0.961,-0.205,-0.854,0.488,-0.854
0.123,0.960,-0.203,-1.038,0.549,-0.854
0.122,0.958,-0.204,-0.793,0.488,-0.793
0.123,0.958,-0.206,-0.610,0.549,-0.732
0.123,0.959,-0.205,-0.671,0.488,-0.793
0.123,0.960,-0.204,-0.732,0.366,-0.732
0.123,0.960,-0.205,-0.916,0.366,-0.854
0.122,0.958,-0.203,-0.916,0.610,-0.854
0.123,0.958,-0.203,-0.732,0.488,-0.732
0.122,0.958,-0.204,-1.038,0.427,-0.916
0.123,0.959,-0.204,-0.732,0.488,-0.671
0.124,0.961,-0.204,-0.671,0.427,-0.854
0.123,0.960,-0.204,-0.732,0.366,-0.732
0.123,0.959,-0.205,-0.854,0.305,-0.793
0.125,0.958,-0.204,-0.977,0.061,-0.854
0.123,0.958,-0.203,-1.160,0.244,-0.977
0.122,0.959,-0.203,-1.038,0.305,-0.854
0.123,0.959,-0.203,-1.099,0.488,-0.793
0.123,0.959,-0.204,-1.099,0.488,-0.916
0.123,0.958,-0.203,-1.038,0.793,-0.671
0.122,0.960,-0.204,-0.793,0.732,-0.488
0.123,0.959,-0.202,-0.793,0.671,-0.549
0.122,0.960,-0.204,-0.916,0.549,-0.549
0.123,0.961,-0.204,-0.793,0.549,-0.793
0.123,0.960,-0.205,-0.916,0.549,-0.854
0.124,0.958,-0.206,-0.977,0.488,-0.732
0.124,0.958,-0.205,-0.854,0.244,-0.793
0.123,0.958,-0.206,-0.732,0.549,-0.732
0.121,0.959,-0.205,-0.732,0.793,-0.610
0.122,0.959,-0.204,-0.671,0.610,-0.671
0.123,0.961,-0.204,-0.671,0.488,-0.671
0.122,0.959,-0.204,-0.916,0.427,-0.732
0.123,0.960,-0.204,-0.549,0.549,-0.549
0.122,0.957,-0.204,-0.732,0.549,-0.732
0.123,0.960,-0.204,-0.916,0.427,-0.793
0.122,0.961,-0.204,-0.854,0.427,-0.671
0.122,0.961,-0.202,-0.916,0.549,-0.610
0.125,0.957,-0.202,-0.916,0.610,-0.732
0.123,0.958,-0.202,-0.916,0.610,-0.671
0.119,0.958,-0.204,-0.793,0.610,-0.610
0.115,0.957,-0.204,-0.916,0.916,-0.732
0.121,0.959,-0.204,-0.732,1.038,-0.916
0.128,0.962,-0.203,-1.160,0.732,-0.793
0.129,0.962,-0.204,-1.160,0.427,-0.671
0.127,0.960,-0.205,-0.977,0.610,-0.549
0.123,0.958,-0.205,-0.854,0.366,-0.488
0.120,0.958,-0.205,-0.854,0.549,-0.549
0.120,0.959,-0.206,-0.916,0.671,-0.549
0.123,0.960,-0.206,-1.038,0.671,-0.427
0.124,0.960,-0.204,-0.793,0.793,-0.671
0.123,0.961,-0.203,-0.854,0.854,-0.671
0.123,0.959,-0.203,-0.977,0.732,-0.610
0.122,0.958,-0.203,-0.916,0.793,-0.671
0.121,0.958,-0.203,-0.977,0.671,-0.671
0.122,0.959,-0.203,-1.038,0.732,-0.793
0.123,0.958,-0.205,-1.038,0.610,-0.854
0.122,0.958,-0.204,-1.282,0.488,-0.916
0.122,0.959,-0.205,-1.038,0.610,-0.916
0.121,0.960,-0.205,-0.916,0.671,-0.793
0.122,0.960,-0.205,-0.671,0.732,-0.671
0.124,0.960,-0.205,-0.854,0.671,-0.793
0.125,0.958,-0.207,-0.793,0.549,-0.671
0.125,0.959,-0.204,-0.732,0.671,-0.671
0.123,0.959,-0.203,-0.732,0.671,-0.671
0.123,0.959,-0.203,-0.854,0.854,-0.610
0.122,0.959,-0.203,-0.916,0.671,-0.610
0.123,0.961,-0.204,-0.854,0.488,-0.671
0.123,0.960,-0.205,-0.916,0.610,-0.610
0.123,0.960,-0.205,-0.732,0.549,-0.488
0.125,0.958,-0.205,-0.732,0.610,-0.549
0.123,0.957,-0.205,-0.916,0.488,-0.671
0.122,0.958,-0.205,-0.854,0.610,-0.610
0.122,0.961,-0.205,-0.854,0.793,-0.732
0.124,0.961,-0.204,-0.671,0.977,-0.671
0.124,0.959,-0.204,-0.732,0.854,-0.671
0.124,0.959,-0.203,-0.854,0.671,-0.549
0.124,0.958,-0.204,-0.916,0.732,-0.610
0.123,0.959,-0.205,-0.854,0.488,-0.671
0.122,0.960,-0.205,-1.099,0.549,-0.671
0.123,0.961,-0.204,-0.977,0.793,-0.793
0.123,0.961,-0.203,-0.854,0.732,-0.671
0.122,0.960,-0.203,-0.793,0.916,-0.610
0.123,0.959,-0.204,-0.854,0.671,-0.610
0.123,0.958,-0.204,-0.854,0.488,-0.671
0.120,0.961,-0.207,-0.977,0.549,-0.610
0.122,0.959,-0.205,-0.854,0.549,-0.671
0.124,0.960,-0.205,-0.854,0.549,-0.671
0.125,0.958,-0.203,-0.793,0.549,-0.549
0.123,0.958,-0.205,-0.793,0.488,-0.610
0.122,0.959,-0.205,-0.793,0.793,-0.732
0.121,0.962,-0.205,-0.854,0.732,-0.793
0.123,0.962,-0.205,-0.732,0.549,-0.671
0.123,0.959,-0.204,-0.793,0.549,-0.671
0.123,0.958,-0.205,-0.671,0.610,-0.610
0.123,0.959,-0.206,-0.732,0.732,-0.732
0.123,0.958,-0.204,-0.732,0.793,-0.732
0.122,0.959,-0.205,-0.854,0.732,-0.793
0.123,0.959,-0.203,-0.793,0.549,-0.732
0.122,0.960,-0.205,-0.793,0.488,-0.671
0.119,0.960,-0.204,-0.732,0.549,-0.671
0.122,0.959,-0.204,-0.732,0.732,-0.671
0.126,0.960,-0.202,-0.793,0.610,-0.610
0.128,0.962,-0.203,-0.916,0.488,-0.610
0.126,0.961,-0.205,-0.916,0.427,-0.549
0.122,0.961,-0.206,-0.977,0.366,-0.549
0.120,0.959,-0.205,-0.732,0.549,-0.549
0.122,0.958,-0.205,-0.488,0.732,-0.610
0.122,0.958,-0.205,-0.732,0.671,-0.610
0.121,0.958,-0.204,-0.977,0.793,-0.610
0.121,0.961,-0.204,-0.793,0.671,-0.549
0.122,0.962,-0.203,-0.916,0.610,-0.793
0.123,0.962,-0.203,-0.793,0.549,-0.671
0.123,0.960,-0.202,-0.793,0.427,-0.549
0.122,0.957,-0.203,-0.732,0.610,-0.549
0.121,0.956,-0.204,-0.916,0.549,-0.488
0.120,0.958,-0.204,-0.916,0.671,-0.671
0.121,0.961,-0.204,-0.732,0.732,-0.793
0.123,0.963,-0.204,-0.671,0.854,-0.732
0.124,0.960,-0.204,-0.854,0.671,-0.610
0.125,0.958,-0.205,-0.977,0.549,-0.732
0.122,0.956,-0.207,-1.099,0.488,-0.854
0.121,0.957,-0.208,-0.854,0.488,-0.732
0.123,0.959,-0.207,-0.732,0.427,-0.671
0.124,0.959,-0.206,-0.549,0.488,-0.793
0.124,0.959,-0.205,-0.671,0.427,-0.671
0.123,0.960,-0.203,-0.732,0.610,-0.549
0.120,0.958,-0.203,-0.793,0.793,-0.732
0.122,0.960,-0.205,-0.793,0.732,-0.610
0.123,0.959,-0.204,-0.854,0.488,-0.610
0.123,0.959,-0.203,-0.671,0.488,-0.732
0.122,0.960,-0.203,-0.610,0.610,-0.732
0.122,0.958,-0.203,-0.854,0.732,-0.793
0.122,0.956,-0.203,-1.038,0.793,-0.732
0.120,0.959,-0.203,-0.793,0.854,-0.671
0.121,0.960,-0.203,-0.793,0.732,-0.732
0.123,0.960,-0.203,-0.732,0.549,-0.671
0.124,0.960,-0.203,-0.732,0.488,-0.732
0.124,0.959,-0.205,-1.038,0.488,-0.671
0.122,0.958,-0.207,-1.099,0.732,-0.732
0.122,0.959,-0.206,-1.099,0.854,-0.671
0.123,0.960,-0.205,-0.854,0.488,-0.671
0.123,0.962,-0.204,-0.732,0.549,-0.610
0.123,0.959,-0.204,-0.854,0.793,-0.610
0.123,0.959,-0.204,-0.916,0.732,-0.549
0.121,0.958,-0.203,-0.977,0.671,-0.610
0.122,0.958,-0.205,-0.916,0.488,-0.549
0.123,0.958,-0.204,-0.793,0.488,-0.610
0.123,0.959,-0.205,-0.916,0.549,-0.732
0.123,0.960,-0.206,-0.916,0.671,-0.732
0.122,0.958,-0.204,-0.977,0.671,-0.610
0.122,0.958,-0.204,-0.977,0.732,-0.610
0.123,0.958,-0.203,-0.977,0.854,-0.671
0.122,0.960,-0.204,-0.977,0.671,-0.671
0.122,0.959,-0.204,-0.916,0.671,-0.732
0.121,0.961,-0.204,-0.793,0.610,-0.671
0.123,0.961,-0.205,-0.916,0.671,-0.854
0.124,0.957,-0.205,-1.099,0.732,-0.793
0.124,0.957,-0.204,-0.916,0.610,-0.793
0.121,0.958,-0.205,-0.916,0.488,-0.732
0.120,0.961,-0.205,-0.854,0.488,-0.793
0.121,0.960,-0.205,-0.793,0.671,-0.793
0.123,0.958,-0.203,-0.977,0.671,-0.610
0.125,0.960,-0.203,-0.854,0.793,-0.732
0.127,0.961,-0.206,-0.854,0.793,-0.610
0.126,0.959,-0.204,-1.038,0.610,-0.671
0.121,0.961,-0.205,-0.854,0.732,-0.610
0.122,0.961,-0.204,-0.671,0.732,-0.549
0.123,0.961,-0.203,-0.854,0.610,-0.549
0.122,0.958,-0.204,-0.854,0.671,-0.610
0.121,0.958,-0.204,-0.793,0.671,-0.610
0.122,0.959,-0.205,-0.854,0.671,-0.549
0.121,0.961,-0.205,-0.916,0.671,-0.671
0.122,0.962,-0.204,-0.854,0.732,-0.793
0.124,0.958,-0.204,-1.038,0.671,-0.732
0.123,0.958,-0.203,-0.793,0.610,-0.732
0.120,0.958,-0.205,-0.793,0.793,-0.977
0.121,0.958,-0.205,-0.916,0.854,-0.977
0.123,0.959,-0.204,-0.793,0.793,-0.671
0.125,0.961,-0.204,-0.977,0.610,-0.610
0.123,0.961,-0.205,-0.854,0.671,-0.671
0.124,0.959,-0.205,-0.793,0.488,-0.671
0.122,0.958,-0.205,-0.977,0.610,-0.671
0.121,0.958,-0.205,-0.854,0.610,-0.671
0.121,0.959,-0.205,-0.793,0.671,-0.732
0.123,0.961,-0.204,-0.793,0.671,-0.671
0.124,0.959,-0.206,-0.793,0.610,-0.549
0.123,0.959,-0.205,-0.854,0.366,-0.610
0.122,0.959,-0.204,-0.732,0.671,-0.488
0.122,0.958,-0.204,-0.671,0.549,-0.671
0.124,0.958,-0.203,-0.671,0.610,-0.610
0.123,0.960,-0.203,-0.610,0.671,-0.671
0.124,0.960,-0.204,-0.793,0.549,-0.549
0.123,0.960,-0.204,-0.854,0.549,-0.549
0.122,0.959,-0.204,-0.671,0.488,-0.610
0.123,0.960,-0.204,-0.732,0.427,-0.671
0.121,0.959,-0.204,-0.793,0.671,-0.610
0.121,0.960,-0.204,-0.671,0.793,-0.610
0.122,0.959,-0.205,-0.793,0.732,-0.610
0.122,0.958,-0.205,-0.854,0.671,-0.793
0.123,0.959,-0.204,-0.916,0.671,-0.671
0.122,0.959,-0.204,-0.916,0.732,-0.671
0.121,0.959,-0.204,-1.099,0.732,-0.549
0.122,0.961,-0.203,-0.977,0.549,-0.671
0.123,0.961,-0.204,-1.038,0.671,-0.732
0.125,0.959,-0.205,-0.916,0.427,-0.671
0.126,0.958,-0.206,-0.916,0.549,-0.488
0.123,0.958,-0.205,-0.916,0.488,-0.549
0.122,0.959,-0.206,-0.977,0.671,-0.549
0.122,0.960,-0.205,-0.854,0.793,-0.610
0.122,0.961,-0.205,-0.793,0.793,-0.732
0.124,0.961,-0.204,-0.854,0.732,-0.732
0.124,0.959,-0.204,-0.671,0.671,-0.549
0.123,0.959,-0.204,-0.488,0.549,-0.610
0.121,0.958,-0.205,-0.793,0.366,-0.671
0.122,0.958,-0.205,-0.793,0.427,-0.671
0.122,0.959,-0.205,-0.854,0.488,-0.732
0.123,0.961,-0.205,-0.732,0.671,-0.671
0.123,0.960,-0.204,-0.488,0.671,-0.732
0.124,0.958,-0.203,-0.549,0.488,-0.610

0.026,0.980,-0.156,-3.357,-5.615,0.732
0.017,0.975,-0.151,-3.357,-4.578,-0.366
0.023,0.974,-0.149,-2.991,-3.784,-1.526
0.030,0.966,-0.150,-2.869,-3.540,-2.563
0.035,0.959,-0.157,-2.808,-3.235,-3.235
0.040,0.952,-0.167,-2.747,-3.052,-3.967
0.046,0.955,-0.169,-2.625,-2.869,-4.517
0.051,0.959,-0.173,-2.625,-2.380,-5.249
0.055,0.967,-0.166,-2.319,-1.831,-5.493
0.064,0.970,-0.161,-2.380,-1.526,-5.615
0.072,0.968,-0.159,-2.441,-1.343,-5.493
0.078,0.966,-0.157,-2.441,-1.526,-5.066
0.084,0.965,-0.159,-2.563,-1.770,-4.517
0.086,0.969,-0.160,-2.502,-2.075,-4.150
0.092,0.965,-0.160,-2.747,-2.258,-3.784
0.098,0.964,-0.161,-2.930,-2.441,-2.991
0.103,0.967,-0.161,-3.418,-2.869,-1.953
0.111,0.969,-0.158,-2.991,-3.540,-0.793
0.119,0.962,-0.164,-3.418,-4.333,0.427
0.117,0.966,-0.169,-3.784,-5.371,1.526
0.115,0.959,-0.178,-4.089,-6.287,2.686
0.099,0.973,-0.177,-4.578,-6.287,3.540
0.062,0.987,-0.161,-4.028,-5.005,4.150
0.049,0.983,-0.147,-3.662,-3.296,4.333
0.058,0.998,-0.146,-3.418,-1.648,4.456
0.085,0.989,-0.151,-2.991,-2.075,5.249
0.113,0.976,-0.170,-3.662,-3.967,5.859
0.093,0.990,-0.171,-4.395,-5.432,6.042
0.044,0.995,-0.163,-4.272,-5.066,5.493
0.013,0.987,-0.156,-3.723,-3.357,4.822
0.013,0.994,-0.164,-3.052,-1.099,3.662
0.033,0.994,-0.169,-2.258,0.732,2.869
0.073,0.961,-0.176,-2.258,0.488,2.258
0.083,0.940,-0.187,-3.113,-0.366,1.648
0.045,0.954,-0.187,-3.235,-0.061,0.793
0.018,0.958,-0.185,-2.747,1.404,-0.183
0.005,0.965,-0.176,-2.258,3.357,-1.343
0.019,0.958,-0.175,-1.526,4.761,-2.136
0.041,0.948,-0.188,-1.282,5.737,-2.930
0.040,0.951,-0.191,-1.038,6.531,-3.601
0.042,0.946,-0.190,-0.732,7.690,-4.150
0.050,0.953,-0.191,-0.366,8.057,-4.700
0.066,0.965,-0.188,-0.061,7.996,-4.883
0.085,0.970,-0.185,0.305,7.446,-4.761
0.087,0.967,-0.186,0.488,6.653,-4.578
0.078,0.959,-0.189,0.610,6.165,-4.517
0.080,0.958,-0.196,0.671,5.615,-4.333
0.088,0.962,-0.202,0.854,4.822,-4.089
0.090,0.967,-0.200,0.977,4.028,-3.784
0.086,0.973,-0.196,1.221,3.662,-3.601
0.083,0.977,-0.191,1.770,3.601,-3.479
0.083,0.978,-0.188,2.136,3.662,-3.357
0.085,0.972,-0.182,2.258,3.052,-2.991
0.090,0.968,-0.185,2.319,2.319,-2.502
0.084,0.968,-0.180,2.563,2.136,-2.136
0.072,0.964,-0.177,2.747,2.258,-2.014
0.070,0.969,-0.174,2.808,2.380,-1.831
0.078,0.968,-0.172,2.808,2.380,-1.831
0.075,0.971,-0.168,3.235,2.075,-1.892
0.071,0.966,-0.167,3.479,2.136,-2.136
0.068,0.973,-0.165,3.357,1.831,-2.258
0.062,0.981,-0.162,3.662,1.587,-2.380
0.060,0.967,-0.156,3.845,1.770,-2.258
0.065,0.957,-0.154,3.662,1.587,-2.502
0.074,0.954,-0.163,3.357,1.282,-2.991
0.072,0.959,-0.173,3.296,1.343,-3.235
0.065,0.969,-0.173,3.479,1.587,-3.418
0.057,0.976,-0.167,3.723,2.441,-3.540
0.061,0.976,-0.158,4.211,3.296,-3.540
0.079,0.974,-0.156,4.150,3.540,-3.601
0.081,0.980,-0.151,4.028,3.418,-3.723
0.076,0.976,-0.147,3.967,3.296,-3.723
0.063,0.972,-0.148,3.784,3.845,-3.723
0.051,0.983,-0.145,4.028,5.310,-3.784
0.076,0.978,-0.143,4.272,5.737,-3.601
0.108,0.966,-0.149,3.906,4.944,-3.418
0.114,0.967,-0.152,3.479,3.601,-3.235
0.100,0.972,-0.154,3.113,2.441,-3.113
0.079,0.973,-0.155,3.052,2.136,-3.174
0.067,0.971,-0.150,3.113,2.625,-3.052
0.061,0.971,-0.142,3.174,3.723,-3.113
0.062,0.978,-0.141,3.235,4.639,-3.357
0.069,0.983,-0.146,3.540,5.371,-3.357
0.087,0.973,-0.147,3.662,5.310,-3.174
0.101,0.964,-0.150,3.540,4.761,-2.930
0.097,0.968,-0.148,3.235,4.028,-2.930
0.094,0.974,-0.141,3.174,3.418,-2.686
0.102,0.973,-0.147,2.808,2.380,-2.441
0.091,0.973,-0.150,2.747,1.709,-2.136
0.073,0.977,-0.144,2.747,2.014,-2.014
0.079,0.972,-0.138,2.930,2.502,-1.831
0.099,0.968,-0.138,2.869,2.197,-1.709
0.107,0.977,-0.142,2.441,1.831,-1.587
0.102,0.987,-0.138,2.014,1.038,-1.038
0.090,0.973,-0.136,2.014,0.061,-0.732
0.082,0.965,-0.132,1.892,-0.244,-0.549
0.085,0.969,-0.136,1.770,-0.671,-0.488
0.086,0.974,-0.139,1.465,-0.793,-0.488
0.083,0.969,-0.136,1.526,-0.549,-0.244
0.088,0.973,-0.134,1.221,-0.366,-0.061
0.096,0.980,-0.138,1.099,-0.610,0.183
0.093,0.979,-0.144,0.977,-1.099,0.244
0.072,0.974,-0.145,0.916,-0.977,0.305
0.064,0.975,-0.134,1.099,0.366,0.305
0.084,0.977,-0.121,0.977,0.732,0.366
0.102,0.973,-0.124,0.244,0.000,0.610
0.095,0.970,-0.124,-0.183,-0.793,0.732
0.081,0.971,-0.129,-0.610,-1.099,0.793
0.062,0.977,-0.128,-0.610,-0.305,0.671
0.060,0.975,-0.126,-0.427,0.977,0.366
0.070,0.974,-0.133,-0.427,1.770,0.366
0.080,0.986,-0.132,-0.366,2.441,0.427
0.098,0.978,-0.140,0.000,2.014,0.854
0.097,0.974,-0.145,-0.305,1.526,1.221
0.097,0.967,-0.143,-0.427,0.854,1.526
0.094,0.967,-0.148,-0.610,0.427,1.953
0.088,0.976,-0.144,-0.366,0.305,2.319
0.093,0.973,-0.146,-0.122,0.244,2.808
0.090,0.967,-0.147,-0.061,-0.183,3.052
0.082,0.968,-0.145,-0.061,-0.549,3.235
0.072,0.967,-0.138,-0.122,-0.244,3.235
0.069,0.972,-0.130,0.000,0.000,3.235
0.077,0.976,-0.123,-0.122,0.122,3.296
0.088,0.974,-0.126,-0.427,-0.488,3.235
0.078,0.975,-0.131,-0.854,-0.977,3.296
0.061,0.990,-0.133,-0.977,-0.671,3.174
0.060,0.984,-0.129,-0.732,-0.183,3.113
0.061,0.974,-0.129,-0.610,0.183,3.052
0.060,0.972,-0.130,-0.671,0.610,2.991
0.068,0.979,-0.133,-0.610,0.854,2.747
0.071,0.974,-0.136,-0.427,1.099,2.625
0.070,0.974,-0.137,-0.671,0.854,2.808
0.064,0.974,-0.138,-0.488,0.793,2.563
0.067,0.974,-0.134,-0.488,1.099,2.502
0.073,0.973,-0.134,-0.549,0.977,2.502
0.075,0.974,-0.132,-0.732,0.610,2.625
0.077,0.972,-0.134,-0.549,-0.183,2.563
0.070,0.974,-0.138,-0.732,-0.977,2.502
0.058,0.977,-0.142,-0.793,-1.221,2.197
0.047,0.978,-0.138,-0.671,-0.793,1.831
0.050,0.979,-0.131,-0.671,-0.122,1.648
0.065,0.974,-0.129,-0.916,-0.061,1.465
0.063,0.973,-0.133,-0.916,-0.427,1.343
0.063,0.980,-0.132,-0.732,-0.793,1.526
0.066,0.978,-0.135,-0.977,-0.793,1.587
0.072,0.979,-0.135,-1.160,-1.099,1.526
0.072,0.974,-0.132,-1.099,-1.404,1.770
0.064,0.973,-0.129,-1.587,-1.465,1.953
0.056,0.975,-0.129,-1.465,-1.221,1.892
0.057,0.978,-0.132,-1.465,-0.671,1.831
0.057,0.978,-0.134,-1.465,-0.366,2.014
0.056,0.975,-0.133,-1.404,-0.061,1.953
0.060,0.973,-0.131,-1.404,0.000,2.014
0.064,0.974,-0.135,-1.709,-0.183,1.892
0.055,0.977,-0.142,-1.526,-0.061,1.953
0.041,0.983,-0.143,-1.343,0.977,2.014
0.047,0.980,-0.137,-1.160,2.014,1.953
0.071,0.971,-0.133,-1.221,2.014,2.258
0.078,0.972,-0.133,-1.526,1.343,2.625
0.078,0.976,-0.129,-1.770,0.610,3.113
0.082,0.974,-0.131,-1.770,-0.305,3.784
0.077,0.970,-0.140,-2.197,-1.465,4.089
0.068,0.974,-0.141,-2.075,-2.258,4.333
0.050,0.970,-0.147,-2.136,-2.686,3.906
0.025,0.971,-0.146,-1.892,-1.831,3.357
0.015,0.979,-0.137,-1.709,0.061,2.380
0.039,0.983,-0.132,-1.038,1.038,1.831
0.049,0.979,-0.134,-0.916,0.793,1.099
0.032,0.973,-0.138,-1.221,0.183,0.427
0.017,0.976,-0.131,-1.282,0.366,-0.488
0.027,0.978,-0.128,-1.038,0.610,-1.099
0.048,0.978,-0.132,-1.099,0.549,-1.343
0.059,0.980,-0.136,-1.160,0.122,-1.526
0.054,0.980,-0.138,-1.221,0.061,-1.648
0.057,0.975,-0.136,-1.465,0.061,-1.587
0.055,0.973,-0.138,-1.526,0.061,-1.343
0.061,0.970,-0.136,-1.587,0.061,-1.099
0.061,0.967,-0.137,-1.770,-0.122,-0.916
0.057,0.976,-0.138,-1.831,-0.305,-0.916
0.050,0.979,-0.140,-1.587,0.000,-0.610
0.049,0.974,-0.138,-1.404,0.366,-0.427
0.054,0.972,-0.137,-1.221,0.854,-0.244
0.062,0.969,-0.137,-1.465,0.549,0.000
0.060,0.972,-0.139,-1.648,0.427,0.244
0.055,0.970,-0.141,-1.587,0.061,0.366
0.050,0.975,-0.143,-1.587,0.122,0.488
0.054,0.979,-0.140,-1.526,0.061,0.793
0.067,0.974,-0.141,-1.282,0.000,1.099
0.070,0.971,-0.142,-1.709,-0.549,1.282
0.062,0.974,-0.144,-1.770,-0.854,1.282
0.050,0.978,-0.142,-1.526,-1.404,1.404
0.046,0.975,-0.141,-1.587,-1.465,1.282
0.035,0.973,-0.143,-1.526,-0.916,1.160
0.039,0.975,-0.138,-1.465,-0.549,1.160
0.046,0.975,-0.137,-1.221,-0.427,1.099
0.054,0.973,-0.136,-1.465,-0.366,1.282
0.065,0.972,-0.134,-1.526,-1.099,1.465
0.066,0.972,-0.140,-1.709,-1.892,1.648
0.044,0.974,-0.145,-1.831,-2.075,1.648
0.029,0.975,-0.141,-1.709,-1.221,1.648
0.026,0.973,-0.141,-1.709,-0.061,1.282
0.041,0.972,-0.134,-1.526,0.793,1.282
0.052,0.969,-0.138,-1.465,1.038,1.404
0.056,0.973,-0.138,-1.587,0.916,1.831
0.067,0.972,-0.139,-1.587,0.183,2.380
0.077,0.969,-0.142,-2.075,-1.221,2.869
0.061,0.967,-0.148,-2.502,-2.197,3.174
0.038,0.973,-0.146,-2.563,-2.075,3.235
0.033,0.981,-0.144,-2.319,-1.160,3.540
0.050,0.982,-0.138,-2.197,-0.549,3.845
0.056,0.977,-0.137,-2.686,-0.977,4.028
0.044,0.977,-0.135,-3.235,-1.221,4.211
0.032,0.979,-0.135,-3.296,-0.916,4.089
0.036,0.976,-0.134,-3.601,-0.427,3.967
0.045,0.980,-0.138,-3.601,-0.427,3.784
0.035,0.978,-0.145,-3.784,-0.671,3.540
0.005,0.985,-0.140,-4.028,0.366,2.808
0.009,0.990,-0.134,-3.784,1.587,1.831
0.022,0.982,-0.142,-4.028,2.075,0.671
0.005,0.977,-0.138,-4.211,2.380,-0.183
-0.007,0.979,-0.131,-4.150,3.052,-1.221
0.002,0.977,-0.135,-4.089,3.601,-2.380
0.016,0.977,-0.140,-4.150,3.906,-2.991
0.012,0.978,-0.142,-4.456,4.395,-3.418
0.014,0.978,-0.136,-4.456,5.493,-3.784
0.036,0.973,-0.142,-4.395,5.859,-3.845
0.042,0.974,-0.156,-4.761,5.554,-3.845
0.036,0.981,-0.152,-4.761,5.615,-3.723
0.040,0.973,-0.150,-4.517,6.470,-3.479
0.049,0.973,-0.151,-4.822,6.409,-3.357
0.053,0.982,-0.150,-5.310,5.920,-3.357
0.051,0.982,-0.148,-5.310,5.676,-3.113
0.039,0.972,-0.146,-5.554,5.432,-2.991
0.028,0.972,-0.143,-5.737,5.737,-3.174
0.031,0.976,-0.139,-5.920,6.165,-3.296
0.029,0.975,-0.143,-6.042,6.592,-3.174
0.030,0.971,-0.144,-6.165,6.958,-3.052
0.047,0.968,-0.152,-6.042,7.019,-2.991

0.087,0.972,-0.139,-0.977,1.221,-2.014
0.099,0.964,-0.135,-0.854,1.465,-1.831
0.099,0.966,-0.137,-0.977,1.587,-1.831
0.095,0.975,-0.137,-0.916,1.953,-1.892
0.099,0.976,-0.139,-1.160,2.319,-1.404
0.104,0.967,-0.137,-1.160,2.197,-1.160
0.109,0.965,-0.138,-1.465,1.831,-0.977
0.110,0.972,-0.144,-1.709,1.404,-0.977
0.103,0.981,-0.145,-1.587,1.343,-0.793
0.101,0.974,-0.147,-1.648,1.831,-0.488
0.096,0.975,-0.146,-1.648,1.892,-0.610
0.097,0.981,-0.140,-1.343,2.075,-0.610
0.105,0.979,-0.141,-1.343,2.258,-0.427
0.105,0.974,-0.139,-1.404,2.319,-0.427
0.101,0.967,-0.138,-1.221,2.014,-0.549
0.095,0.966,-0.137,-1.160,1.526,-0.916
0.081,0.971,-0.141,-1.404,1.648,-1.282
0.073,0.973,-0.139,-0.977,2.136,-1.526
0.083,0.969,-0.137,-0.671,2.319,-1.587
0.096,0.963,-0.139,-0.671,2.197,-1.892
0.104,0.964,-0.142,-0.732,1.770,-2.197
0.107,0.970,-0.141,-0.732,0.916,-2.380
0.102,0.974,-0.144,-1.038,0.305,-2.380
0.095,0.973,-0.142,-0.916,0.244,-2.441
0.095,0.975,-0.144,-0.916,-0.122,-2.625
0.097,0.979,-0.146,-0.916,0.000,-2.747
0.093,0.974,-0.142,-0.549,0.366,-2.625
0.094,0.968,-0.140,-0.366,0.732,-2.502
0.100,0.969,-0.137,-0.427,1.038,-2.563
0.107,0.969,-0.139,-0.549,0.793,-2.625
0.102,0.969,-0.143,-0.427,1.221,-2.380
0.099,0.969,-0.141,-0.488,1.465,-2.136
0.107,0.973,-0.145,-0.916,1.404,-2.075
0.112,0.981,-0.148,-0.793,1.404,-2.075
0.104,0.975,-0.146,-0.610,2.014,-1.709
0.103,0.973,-0.144,-0.244,2.380,-1.404
0.104,0.974,-0.139,-0.244,2.258,-1.343
0.103,0.976,-0.140,-0.122,1.953,-1.282
0.102,0.973,-0.139,-0.061,1.831,-0.977
0.101,0.970,-0.140,-0.061,1.831,-0.977
0.095,0.976,-0.144,0.061,2.136,-0.854
0.096,0.974,-0.143,0.366,2.258,-1.038
0.100,0.969,-0.141,0.427,2.258,-1.038
0.100,0.968,-0.148,0.488,2.380,-0.977
0.091,0.968,-0.146,0.427,2.808,-1.404
0.093,0.973,-0.146,0.610,3.418,-1.465
0.102,0.971,-0.138,0.610,3.601,-1.282
0.109,0.969,-0.139,0.916,3.418,-1.282
0.102,0.969,-0.136,0.793,3.357,-1.404
0.100,0.970,-0.137,1.099,3.418,-1.465
0.102,0.966,-0.138,1.099,3.174,-1.343
0.102,0.966,-0.135,1.221,3.235,-1.587
0.102,0.971,-0.138,1.282,2.991,-1.465
0.097,0.973,-0.141,1.465,3.296,-1.526
0.093,0.973,-0.145,1.648,3.784,-1.526
0.099,0.971,-0.141,1.892,4.333,-1.404
0.112,0.969,-0.139,2.014,4.089,-1.038
0.118,0.964,-0.134,1.831,3.662,-1.099
0.116,0.970,-0.131,1.831,3.052,-1.038
0.110,0.972,-0.137,2.075,2.380,-0.916
0.104,0.967,-0.140,2.258,2.625,-0.671
0.102,0.968,-0.138,2.258,2.991,-0.854
0.110,0.978,-0.142,2.319,2.625,-0.916
0.107,0.976,-0.141,2.441,2.502,-0.977
0.097,0.970,-0.137,2.441,2.686,-1.099
0.091,0.968,-0.133,2.625,2.930,-0.977
0.097,0.973,-0.131,2.686,3.235,-1.038
0.108,0.976,-0.132,2.869,3.052,-1.221
0.117,0.971,-0.131,2.747,2.319,-0.916
0.116,0.963,-0.129,2.380,1.465,-1.038
0.107,0.967,-0.128,2.258,1.038,-0.977
0.102,0.969,-0.122,2.136,0.854,-0.854
0.106,0.969,-0.118,2.014,0.488,-0.977
0.107,0.967,-0.123,2.075,-0.122,-0.732
0.098,0.965,-0.124,1.709,-0.366,-0.793
0.091,0.969,-0.118,1.892,0.305,-0.732
0.100,0.960,-0.111,1.587,0.549,-0.549
0.112,0.974,-0.114,1.526,0.061,-0.549
0.115,0.981,-0.110,1.526,-0.549,-0.488
0.130,0.977,-0.114,1.282,-2.197,0.183
0.148,0.966,-0.130,0.244,-4.333,0.793
0.148,0.964,-0.143,-0.916,-6.165,1.343
0.128,0.961,-0.132,-1.587,-7.507,1.831
0.123,0.958,-0.115,-1.587,-8.484,2.380
0.132,0.964,-0.109,-1.709,-10.193,2.991
0.125,0.972,-0.122,-2.075,-11.414,3.357
0.103,0.976,-0.130,-2.563,-12.024,3.296
0.067,0.980,-0.133,-2.441,-11.169,2.991
0.043,0.981,-0.127,-2.014,-8.911,2.502
0.042,0.985,-0.124,-1.404,-6.042,1.892
0.056,0.989,-0.118,-1.099,-3.906,1.038
0.070,0.988,-0.115,-0.854,-2.319,0.488
0.079,0.983,-0.109,-0.854,-0.916,0.305
0.080,0.980,-0.108,-1.160,0.061,0.122
0.077,0.979,-0.103,-1.221,0.977,-0.183
0.080,0.977,-0.105,-1.282,2.197,-0.305
0.077,0.970,-0.106,-1.404,3.845,-0.488
0.076,0.969,-0.108,-1.343,5.310,-1.099
0.081,0.969,-0.118,-1.282,6.470,-1.465
0.078,0.979,-0.129,-1.221,7.629,-1.587
0.077,0.980,-0.129,-0.916,8.606,-1.892
0.077,0.976,-0.132,-0.610,10.193,-2.258
0.083,0.975,-0.129,-0.427,11.475,-2.686
0.086,0.973,-0.128,-0.366,12.451,-3.113
0.090,0.979,-0.129,-0.183,12.878,-3.296
0.085,0.976,-0.126,-0.061,13.306,-3.235
0.087,0.971,-0.124,-0.122,13.489,-3.235
0.099,0.979,-0.125,0.000,13.184,-3.296
0.104,0.978,-0.130,-0.183,12.390,-3.113
0.121,0.981,-0.130,-0.305,11.414,-3.174
0.115,0.978,-0.132,-0.305,10.498,-2.991
0.108,0.969,-0.127,-0.061,9.888,-2.625
0.104,0.967,-0.125,-0.061,9.216,-2.869
0.093,0.970,-0.128,-0.122,8.911,-3.052
0.089,0.974,-0.131,0.061,9.216,-2.991
0.095,0.976,-0.129,0.671,9.766,-3.418
0.097,0.970,-0.124,1.099,10.254,-3.235
0.109,0.966,-0.123,1.160,9.827,-2.808
0.115,0.962,-0.126,0.977,8.911,-2.747
0.111,0.960,-0.125,0.610,8.057,-2.197
0.126,0.968,-0.125,0.366,7.019,-2.014
0.135,0.973,-0.126,0.000,5.554,-1.587
0.127,0.970,-0.126,-0.427,4.089,-0.977
0.125,0.970,-0.121,-0.916,3.235,-0.427
0.130,0.973,-0.120,-1.282,2.686,0.305
0.127,0.973,-0.119,-1.526,2.563,1.343
0.124,0.973,-0.116,-1.953,2.563,2.014
0.118,0.978,-0.120,-2.075,2.563,2.930
0.112,0.981,-0.124,-1.953,2.930,3.662
0.110,0.979,-0.130,-1.648,3.479,4.211
0.107,0.969,-0.137,-1.343,4.028,4.456
0.095,0.963,-0.140,-1.160,4.333,4.883
0.083,0.965,-0.137,-0.977,4.578,5.127
0.101,0.981,-0.132,-0.488,4.517,5.005
0.118,0.978,-0.140,-0.366,3.662,5.310
0.123,0.980,-0.148,-0.732,2.136,5.432
0.119,0.981,-0.152,-0.854,0.549,5.676
0.111,0.982,-0.146,-0.732,-0.977,5.615
0.106,0.979,-0.140,-0.366,-2.136,5.188
0.090,0.973,-0.136,-0.610,-3.174,4.700
0.071,0.975,-0.126,-0.610,-3.479,4.089
0.060,0.972,-0.117,-0.732,-3.540,3.052
0.053,0.972,-0.108,-0.793,-3.235,2.136
0.050,0.972,-0.102,-0.793,-2.625,1.404
0.058,0.980,-0.100,-0.793,-1.892,0.854
0.058,0.981,-0.104,-1.099,-0.854,-0.061
0.053,0.981,-0.106,-1.221,0.488,-1.038
0.053,0.976,-0.108,-1.282,1.648,-1.892
0.051,0.971,-0.112,-1.160,2.869,-2.686
0.050,0.974,-0.115,-1.221,4.211,-3.174
0.066,0.974,-0.113,-1.282,5.249,-3.418
0.082,0.974,-0.116,-1.038,5.981,-3.540
0.098,0.971,-0.117,-1.221,5.676,-3.601
0.106,0.970,-0.119,-1.892,4.822,-3.723
0.099,0.969,-0.122,-2.258,3.723,-3.540
0.087,0.975,-0.129,-2.380,3.174,-3.418
0.087,0.979,-0.133,-2.075,3.174,-3.357
0.100,0.976,-0.137,-1.709,3.662,-3.418
0.107,0.969,-0.134,-1.648,3.113,-3.296
0.099,0.966,-0.132,-1.892,2.380,-3.235
0.095,0.973,-0.131,-2.075,1.953,-2.869
0.104,0.975,-0.128,-2.197,1.831,-2.319
0.111,0.971,-0.124,-2.319,1.465,-1.648
0.115,0.969,-0.123,-2.991,1.038,-1.038
0.122,0.969,-0.122,-3.296,0.305,-0.610
0.113,0.970,-0.127,-3.540,-0.183,-0.061
0.095,0.968,-0.131,-3.723,-0.610,0.366
0.083,0.974,-0.133,-3.723,-0.183,0.732
0.093,0.978,-0.129,-3.723,0.488,1.221
0.108,0.972,-0.129,-3.723,0.732,1.892
0.111,0.965,-0.129,-4.272,0.427,2.625
0.109,0.973,-0.128,-4.211,0.244,3.418
0.115,0.972,-0.129,-4.333,-0.244,4.150
0.110,0.971,-0.140,-4.333,-0.610,4.761
0.095,0.971,-0.143,-4.395,-0.549,5.249
0.091,0.980,-0.148,-4.272,-0.183,5.249
0.075,0.985,-0.149,-4.028,0.427,5.005
0.070,0.987,-0.143,-3.723,1.282,4.761
0.077,0.980,-0.135,-3.479,2.014,4.639
0.081,0.968,-0.130,-3.540,1.892,4.517
0.069,0.967,-0.132,-3.723,1.953,4.028
0.061,0.974,-0.134,-3.540,2.502,3.296
0.056,0.977,-0.141,-3.296,2.991,2.625
0.049,0.977,-0.146,-3.174,3.906,2.075
0.063,0.978,-0.142,-2.258,4.456,1.526
0.083,0.976,-0.144,-2.014,4.150,1.160
0.091,0.979,-0.150,-2.319,3.296,1.099
0.091,0.975,-0.146,-2.319,2.380,1.404
0.093,0.973,-0.140,-2.380,1.770,1.526
0.101,0.976,-0.142,-2.747,1.038,1.648
0.091,0.976,-0.146,-2.686,0.366,1.831
0.075,0.981,-0.144,-2.380,0.488,2.014
0.074,0.977,-0.143,-2.197,0.610,1.953
0.080,0.976,-0.147,-2.136,0.427,1.770
0.080,0.977,-0.151,-2.075,0.122,1.770
0.068,0.977,-0.147,-2.319,0.305,1.587
0.065,0.973,-0.142,-2.136,1.221,1.526
0.081,0.971,-0.137,-2.075,1.587,1.404
0.079,0.965,-0.140,-2.136,1.526,1.404
0.074,0.970,-0.138,-2.014,1.160,1.221
0.066,0.971,-0.142,-2.197,0.732,1.038
0.065,0.975,-0.144,-2.319,0.854,0.610
0.066,0.976,-0.147,-1.770,1.282,0.305
0.064,0.976,-0.147,-1.465,1.526,-0.061
0.064,0.974,-0.146,-1.343,1.526,-0.122
0.073,0.973,-0.144,-1.221,1.404,-0.366
0.070,0.968,-0.149,-1.099,0.916,-0.732
0.058,0.972,-0.148,-1.038,0.610,-1.160
0.060,0.973,-0.146,-0.671,0.671,-1.404
0.069,0.973,-0.145,-0.610,0.427,-1.587
0.068,0.972,-0.144,-0.671,0.183,-1.770
0.069,0.977,-0.144,-0.610,0.000,-1.892
0.078,0.975,-0.148,-0.610,-0.183,-1.770
0.083,0.974,-0.147,-0.610,-0.305,-1.892
0.082,0.969,-0.145,-0.488,-0.793,-1.770
0.073,0.967,-0.145,-0.610,-1.221,-1.587
0.073,0.969,-0.144,-0.610,-1.343,-1.465
0.083,0.967,-0.139,-0.488,-1.526,-1.038
0.080,0.967,-0.140,-0.916,-1.343,-0.671
0.085,0.976,-0.134,-1.282,-1.160,-0.366
0.088,0.978,-0.138,-1.282,-0.977,0.000
0.087,0.979,-0.142,-1.038,-1.038,0.549
0.081,0.974,-0.149,-1.221,-1.343,0.732
0.078,0.974,-0.152,-0.977,-1.038,0.793
0.068,0.973,-0.154,-0.854,-0.732,0.549
0.061,0.973,-0.150,-0.732,-0.488,0.305
0.060,0.971,-0.149,-0.427,0.000,0.000
0.062,0.977,-0.144,-0.366,0.488,0.000
0.077,0.969,-0.139,-0.366,0.488,0.183
0.079,0.966,-0.141,-0.488,0.122,0.244
0.083,0.972,-0.139,-0.549,-0.122,0.366
0.090,0.973,-0.143,-0.916,-0.793,0.427
0.082,0.975,-0.146,-0.977,-1.282,0.610
0.074,0.974,-0.147,-0.671,-1.404,0.610
0.061,0.967,-0.147,-0.549,-1.343,0.244
0.048,0.971,-0.146,-0.732,-0.793,-0.305
0.047,0.977,-0.139,-0.671,-0.061,-0.793
0.059,0.976,-0.135,-0.854,0.916,-0.977

-0.023,0.981,-0.201,-1.892,-0.671,2.319
-0.024,0.977,-0.194,-1.709,-0.732,2.014
-0.024,0.969,-0.190,-1.587,-0.793,1.892
-0.017,0.962,-0.199,-1.587,-1.160,1.892
-0.014,0.962,-0.211,-1.404,-1.648,2.136
-0.015,0.960,-0.215,-1.099,-1.770,2.075
-0.008,0.956,-0.224,-0.793,-1.892,1.831
-0.005,0.957,-0.235,-0.732,-1.770,1.587
-0.010,0.952,-0.246,-0.549,-1.343,1.465
-0.013,0.943,-0.254,-0.305,-0.671,1.404
-0.019,0.949,-0.258,0.183,0.366,0.977
-0.018,0.943,-0.255,0.488,1.587,0.610
-0.016,0.938,-0.253,0.732,2.625,0.061
-0.024,0.938,-0.238,0.854,3.540,-0.244
-0.021,0.941,-0.224,1.038,3.906,-0.488
-0.005,0.944,-0.214,1.099,3.418,-0.488
0.004,0.949,-0.208,0.916,1.892,-0.244
0.003,0.952,-0.207,0.610,0.549,0.000
-0.008,0.949,-0.212,0.366,-0.427,-0.122
-0.028,0.952,-0.219,0.244,-0.366,-0.427
-0.041,0.962,-0.222,0.122,0.488,-0.671
-0.048,0.968,-0.216,0.244,1.343,-1.465
-0.053,0.967,-0.205,0.244,2.563,-1.892
-0.048,0.971,-0.198,0.122,3.052,-2.380
-0.042,0.977,-0.189,0.061,3.113,-2.747
-0.030,0.975,-0.183,0.061,2.747,-2.808
-0.026,0.966,-0.184,-0.183,2.258,-2.869
-0.025,0.957,-0.187,-0.305,1.892,-3.052
-0.029,0.964,-0.206,-0.549,1.709,-3.296
-0.044,0.978,-0.217,-0.427,1.953,-3.479
-0.041,0.973,-0.225,0.061,2.258,-3.418
-0.037,0.962,-0.210,-0.183,2.991,-3.662
-0.030,0.972,-0.199,0.061,3.967,-3.967
-0.017,0.966,-0.197,0.671,4.272,-3.906
-0.002,0.964,-0.205,0.488,3.601,-3.845
-0.005,0.966,-0.213,0.488,2.502,-3.540
-0.013,0.962,-0.214,0.366,2.014,-3.174
-0.010,0.966,-0.210,0.305,2.014,-2.991
-0.004,0.963,-0.210,0.488,1.953,-2.563
0.001,0.951,-0.215,0.732,1.709,-2.075
0.004,0.951,-0.219,0.671,1.282,-1.831
0.010,0.949,-0.229,0.244,0.427,-1.587
-0.003,0.953,-0.225,0.305,0.122,-1.526
-0.005,0.957,-0.221,0.610,0.183,-1.465
-0.008,0.960,-0.225,0.427,0.549,-1.343
-0.023,0.957,-0.216,0.916,1.160,-1.282
-0.028,0.956,-0.211,1.160,1.892,-1.221
-0.026,0.958,-0.211,1.343,2.686,-1.343
-0.026,0.961,-0.204,1.465,3.723,-1.282
-0.013,0.964,-0.207,1.648,3.845,-1.343
-0.008,0.964,-0.204,1.587,3.784,-1.282
0.000,0.957,-0.199,1.709,3.418,-1.160
0.011,0.954,-0.201,1.709,2.686,-0.793
0.001,0.958,-0.203,1.709,2.502,-0.916
-0.012,0.952,-0.205,1.404,2.380,-0.916
-0.020,0.959,-0.208,1.465,2.502,-1.099
-0.020,0.971,-0.214,1.343,2.197,-0.977
-0.011,0.971,-0.211,1.465,1.953,-0.671
-0.007,0.964,-0.209,1.648,1.770,-0.549
-0.010,0.957,-0.210,1.404,2.197,-0.916
-0.015,0.958,-0.201,1.465,2.991,-1.038
-0.008,0.961,-0.194,1.465,3.357,-0.793
-0.001,0.970,-0.195,1.282,2.869,-0.916
0.000,0.975,-0.193,1.282,2.380,-0.977
-0.000,0.974,-0.194,1.282,2.258,-0.977
-0.001,0.970,-0.194,1.160,2.014,-1.099
-0.005,0.964,-0.190,1.099,1.953,-1.526
-0.010,0.964,-0.185,1.099,2.014,-2.136
-0.019,0.966,-0.191,0.793,2.136,-3.235
-0.033,0.972,-0.195,1.038,2.563,-3.967
-0.034,0.978,-0.190,1.160,2.930,-4.456
-0.028,0.986,-0.193,1.282,2.991,-5.554
-0.031,0.989,-0.196,1.343,2.930,-6.592
-0.038,0.978,-0.198,1.892,3.418,-7.874
-0.049,0.967,-0.193,2.014,4.517,-9.155
-0.048,0.961,-0.187,2.197,5.493,-10.254
-0.043,0.963,-0.184,2.380,5.798,-10.986
-0.035,0.958,-0.180,2.502,5.676,-11.414
-0.016,0.956,-0.179,2.502,5.188,-11.719
-0.003,0.947,-0.180,2.258,4.211,-11.658
0.002,0.939,-0.189,1.831,3.357,-11.414
0.007,0.938,-0.194,1.465,3.296,-10.986
0.017,0.948,-0.196,1.282,3.296,-10.620
0.027,0.951,-0.196,1.160,3.235,-10.010
0.026,0.953,-0.195,1.099,3.174,-9.521
0.026,0.958,-0.195,0.732,2.930,-8.850
0.031,0.967,-0.196,0.549,2.686,-7.935
0.039,0.972,-0.200,0.488,2.808,-6.653
0.046,0.970,-0.190,0.366,2.625,-5.249
0.049,0.965,-0.184,0.244,2.380,-4.395
0.053,0.963,-0.181,-0.427,2.014,-3.723
0.048,0.964,-0.183,-0.610,1.587,-2.808
0.042,0.961,-0.181,-1.099,1.221,-1.465
0.047,0.966,-0.186,-1.404,0.854,-0.122
0.070,0.970,-0.189,-1.343,0.427,1.099
0.086,0.963,-0.198,-1.709,-0.732,2.319
0.074,0.957,-0.210,-2.014,-1.465,3.174
0.053,0.966,-0.212,-1.953,-1.465,3.845
0.042,0.962,-0.212,-2.258,-1.282,4.395
0.036,0.962,-0.213,-2.441,-1.343,4.944
0.028,0.969,-0.210,-2.502,-1.770,5.188
0.023,0.966,-0.201,-3.113,-2.502,5.493
0.017,0.969,-0.193,-3.235,-2.686,5.493
0.013,0.969,-0.180,-3.235,-2.686,5.371
0.005,0.972,-0.178,-3.418,-2.563,5.127
0.000,0.973,-0.168,-3.357,-2.625,4.883
-0.005,0.967,-0.163,-3.296,-2.502,4.517
-0.009,0.963,-0.165,-3.418,-2.441,4.150
-0.006,0.964,-0.175,-3.357,-2.563,3.906
-0.004,0.964,-0.189,-3.662,-2.625,3.540
-0.005,0.969,-0.198,-3.845,-2.563,3.052
-0.011,0.968,-0.204,-3.296,-2.136,2.380
-0.011,0.970,-0.203,-3.174,-1.343,1.526
-0.000,0.969,-0.208,-2.563,-0.488,0.916
0.001,0.954,-0.206,-2.197,0.183,0.427
0.004,0.949,-0.204,-2.380,0.488,-0.061
-0.000,0.955,-0.205,-2.563,0.671,-0.732
-0.006,0.967,-0.204,-2.319,0.793,-1.160
-0.015,0.978,-0.198,-2.136,1.160,-1.282
-0.007,0.974,-0.189,-1.831,1.648,-1.343
-0.000,0.969,-0.188,-1.831,2.136,-1.343
0.007,0.970,-0.184,-2.136,2.014,-1.465
0.026,0.977,-0.184,-2.258,1.709,-0.977
0.039,0.969,-0.182,-2.808,0.854,-0.671
0.041,0.964,-0.180,-3.479,-0.671,-0.549
0.028,0.964,-0.185,-3.784,-2.197,-0.427
0.005,0.967,-0.194,-4.089,-2.930,-0.488
-0.007,0.966,-0.201,-4.028,-2.441,-0.427
-0.003,0.965,-0.211,-3.723,-1.526,-0.610
0.009,0.966,-0.219,-3.357,-1.160,-0.671
0.028,0.967,-0.217,-3.662,-1.892,-0.793
0.026,0.969,-0.219,-3.845,-2.991,-0.732
0.011,0.965,-0.214,-3.845,-3.906,-0.671
-0.001,0.963,-0.213,-3.967,-4.150,-0.793
-0.014,0.968,-0.211,-3.967,-3.540,-1.038
-0.011,0.965,-0.202,-3.418,-2.869,-1.160
0.002,0.958,-0.197,-3.235,-2.747,-1.160
0.008,0.954,-0.198,-3.784,-2.808,-1.343
0.004,0.962,-0.200,-3.967,-3.113,-1.404
0.006,0.969,-0.203,-4.272,-3.235,-1.343
0.012,0.978,-0.206,-4.395,-3.113,-1.160
0.019,0.982,-0.207,-4.272,-2.869,-1.282
0.017,0.978,-0.209,-4.272,-2.625,-1.282
0.010,0.974,-0.207,-4.150,-2.136,-1.343
0.009,0.968,-0.212,-4.272,-1.953,-1.404
0.004,0.966,-0.212,-4.211,-1.892,-1.404
0.000,0.962,-0.215,-3.967,-1.709,-1.465
0.002,0.961,-0.210,-3.784,-1.404,-1.404
0.013,0.958,-0.211,-3.723,-1.526,-1.282
0.016,0.961,-0.212,-4.089,-1.770,-1.221
0.025,0.959,-0.211,-4.211,-2.441,-1.160
0.026,0.964,-0.217,-4.333,-3.113,-0.854
0.021,0.966,-0.222,-4.395,-3.601,-0.732
0.009,0.967,-0.227,-4.395,-3.113,-0.732
0.012,0.973,-0.216,-4.028,-2.197,-0.671
