aX,aY,aZ,gX,gY,gZ
-0.722,1.824,-0.813,11.780,16.663,123.047
-0.591,1.537,-0.738,13.000,40.771,118.896
-0.510,1.334,-0.652,15.625,55.359,116.882
-0.343,1.167,-0.539,16.907,57.312,113.037
-0.194,1.061,-0.426,16.479,48.218,102.234
-0.171,0.997,-0.303,13.184,33.142,90.576
-0.240,0.995,-0.251,9.949,21.301,78.979
-0.255,0.975,-0.231,10.193,10.193,67.139
-0.152,0.833,-0.202,10.071,-1.831,56.641
-0.060,0.682,-0.179,7.996,-13.489,45.898
0.004,0.460,-0.186,4.639,-25.330,37.292
0.074,0.346,-0.169,-1.099,-35.400,23.499
0.157,0.337,-0.173,0.000,-46.814,5.310
0.209,0.290,-0.182,-2.563,-58.044,-7.935
0.212,0.297,-0.184,-8.118,-64.575,-20.203
0.183,0.290,-0.167,-12.329,-65.125,-33.203
0.183,0.245,-0.142,-14.832,-63.904,-45.532
0.193,0.205,-0.088,-16.174,-62.927,-60.059
0.187,0.155,-0.081,-17.395,-62.317,-76.660
0.186,0.184,-0.060,-18.188,-60.242,-93.811
0.274,0.222,-0.042,-18.921,-61.157,-111.023
0.286,0.293,-0.008,-21.057,-64.819,-121.704
0.190,0.291,-0.001,-21.973,-67.078,-124.512
0.072,0.205,-0.006,-21.240,-67.627,-129.395
0.034,0.164,0.023,-20.386,-71.350,-138.245
-0.035,0.181,0.066,-20.935,-76.721,-144.836
-0.145,0.189,0.115,-22.522,-84.656,-145.325
-0.276,0.230,0.206,-23.254,-91.919,-139.893
-0.446,0.229,0.229,-22.888,-104.065,-130.310
-0.763,0.228,0.146,-20.325,-115.540,-120.789
-1.136,0.215,0.047,-15.076,-119.812,-110.107
-1.389,0.172,-0.054,-11.780,-115.601,-97.900
-1.611,0.154,-0.125,-9.644,-104.004,-82.275
-1.766,0.136,-0.178,-7.629,-91.370,-61.951
-1.828,0.100,-0.172,-7.629,-84.290,-39.429
-1.872,0.130,-0.203,-2.380,-66.895,-17.517
-1.849,0.124,-0.238,3.235,-50.964,1.709
-1.795,0.096,-0.253,6.226,-39.551,20.447
-1.681,0.047,-0.162,8.301,-28.992,36.377
-1.464,-0.002,-0.001,13.306,-18.738,49.133
-1.184,-0.117,0.120,21.484,-10.864,59.326
-0.816,-0.291,0.264,32.471,-9.399,64.270
-0.664,-0.570,0.237,34.912,-17.700,63.171
-1.426,-1.118,-0.371,24.292,-30.945,67.566
-1.523,-0.661,0.293,37.170,-42.480,70.251
-1.243,-0.520,-0.801,16.724,-68.848,66.406
-1.734,0.554,-0.896,-9.216,-90.027,80.811
-0.091,1.314,-1.094,-8.789,-108.765,41.687
0.473,2.069,-1.185,-29.602,-81.970,-37.292
-0.609,2.668,-1.508,-40.527,-37.109,-48.279
-0.936,3.287,-1.023,-3.540,10.437,-13.062
-0.589,2.337,-0.252,26.672,64.575,17.151
-0.462,1.497,0.083,35.583,82.703,20.691
-0.621,0.940,0.238,42.786,67.810,19.958
-0.687,0.473,0.278,35.828,44.373,8.728
-0.537,0.209,0.024,23.071,26.123,-8.850
-0.341,0.068,-0.271,7.751,0.916,-15.747
-0.244,0.139,-0.460,-2.258,-26.855,-14.038
-0.288,0.346,-0.564,-9.583,-52.185,-13.123
-0.446,0.633,-0.592,-13.489,-55.908,-20.081
-0.641,0.925,-0.510,-12.573,-41.077,-31.799
-0.708,1.177,-0.421,-7.385,-14.343,-40.649
-0.738,1.185,-0.329,-1.099,11.169,-49.255
-0.631,1.092,-0.284,0.793,27.405,-58.594
-0.451,0.981,-0.288,-1.038,32.715,-65.735
-0.321,1.016,-0.330,-1.770,28.015,-68.115
-0.296,1.029,-0.355,-2.441,21.057,-71.045
-0.324,1.009,-0.343,-2.197,7.690,-70.984
-0.292,1.080,-0.328,6.226,-0.366,-62.012
-0.397,0.936,-0.382,5.371,8.545,-67.749
-0.437,0.915,-0.354,4.272,19.348,-78.247
-0.354,0.904,-0.366,6.409,25.757,-80.200
-0.270,0.929,-0.389,13.000,26.978,-71.655
-0.208,0.932,-0.363,17.334,22.217,-62.927
-0.244,0.890,-0.337,16.357,20.508,-60.852
-0.237,0.808,-0.318,11.963,23.621,-63.354
-0.212,0.744,-0.305,6.531,28.381,-67.322
-0.181,0.734,-0.282,2.380,30.457,-68.237
-0.155,0.734,-0.270,-1.038,27.710,-65.552
-0.139,0.821,-0.249,-0.854,21.851,-58.411
-0.051,0.826,-0.203,-0.977,17.456,-53.528
-0.013,0.772,-0.234,-3.967,8.911,-51.025
-0.099,0.761,-0.284,-6.409,1.770,-45.715
-0.204,0.751,-0.291,-7.812,-0.793,-39.673
-0.249,0.777,-0.325,-8.789,3.235,-35.095
-0.202,0.783,-0.359,-9.827,9.888,-30.273
-0.183,0.806,-0.402,-10.498,19.958,-26.550
0.012,0.768,-0.433,-7.996,26.062,-25.391
0.044,0.752,-0.462,-12.390,24.170,-24.902
-0.057,0.840,-0.417,-14.832,23.437,-21.240
-0.021,0.939,-0.370,-13.550,25.635,-14.526
0.053,0.968,-0.331,-12.207,23.193,-8.118
0.015,1.032,-0.314,-10.620,19.714,-1.526
0.047,1.104,-0.273,-6.897,15.808,5.859
0.041,1.134,-0.322,-4.272,10.193,12.878
-0.017,1.218,-0.335,-2.869,7.629,18.127
-0.075,1.320,-0.341,0.183,10.925,20.447
-0.120,1.393,-0.351,4.089,15.991,21.606
-0.154,1.448,-0.341,9.216,21.851,22.034
-0.143,1.417,-0.350,12.207,25.879,21.240
-0.167,1.384,-0.367,13.062,29.968,19.653
-0.180,1.379,-0.363,14.160,35.645,17.456
-0.167,1.372,-0.379,14.893,42.603,15.625
-0.183,1.348,-0.408,14.221,52.307,15.137
-0.097,1.336,-0.430,12.329,60.425,15.625
-0.027,1.336,-0.450,9.155,67.078,15.625
-0.019,1.336,-0.434,5.249,75.256,15.747
0.012,1.380,-0.358,2.808,85.449,16.907
0.090,1.467,-0.266,2.258,93.994,18.250
0.200,1.537,-0.264,4.272,98.694,19.348
0.317,1.567,-0.247,6.226,99.243,21.667
0.368,1.585,-0.211,6.958,97.900,24.048
0.422,1.611,-0.144,8.362,91.919,29.480
0.489,1.636,-0.203,12.146,81.116,41.870
0.493,1.600,-0.310,14.343,63.843,56.274
0.433,1.536,-0.414,14.832,39.673,62.622
0.369,1.526,-0.478,11.108,15.869,42.053
0.212,1.597,-0.587,7.141,-1.160,36.438
0.069,1.676,-0.763,5.554,-20.264,72.449
-0.286,1.652,-1.081,2.136,-41.382,96.863
-0.587,1.641,-1.002,-1.892,-47.363,117.493
-1.078,1.725,-0.962,-7.629,-46.814,131.042
-1.347,1.962,-0.871,-4.089,-36.438,144.043
-1.330,2.040,-0.875,-0.610,-18.250,153.015
-1.200,2.095,-0.952,-2.991,7.324,153.809
-1.005,2.060,-0.983,-0.366,38.818,152.466
-0.799,1.860,-0.790,2.625,66.528,151.794
-0.595,1.679,-0.716,9.766,93.323,147.705
-0.310,1.492,-0.642,14.404,97.168,142.212
-0.015,1.370,-0.571,16.052,80.688,137.207
0.138,1.246,-0.451,15.564,51.514,129.944
0.227,1.112,-0.346,14.648,19.043,121.826
0.306,0.965,-0.254,14.404,-10.742,115.540
0.378,0.719,-0.158,10.925,-32.288,107.605
0.378,0.541,-0.143,6.287,-42.297,91.553
0.426,0.422,-0.173,4.395,-43.152,68.604
0.508,0.349,-0.191,3.784,-38.269,44.067
0.574,0.214,-0.159,3.967,-31.006,25.513
0.621,0.083,-0.094,7.629,-26.794,8.789
0.618,-0.043,-0.031,8.911,-28.015,-8.301
0.659,-0.028,0.027,9.644,-37.354,-31.616
0.684,0.030,0.004,9.949,-48.157,-57.007
0.653,0.022,-0.051,5.920,-58.655,-77.271
0.531,0.042,-0.030,1.038,-63.660,-91.858
0.455,0.063,-0.036,-0.732,-66.345,-104.126
0.330,0.021,-0.041,-4.517,-68.237,-116.150
0.231,0.027,-0.083,-6.775,-69.031,-128.479
0.183,-0.007,-0.071,-8.789,-67.200,-141.235
0.150,0.061,-0.072,-9.766,-63.965,-152.832
0.021,0.078,-0.026,-10.132,-62.073,-159.851
-0.181,0.136,0.011,-8.850,-59.326,-164.734
-0.311,0.155,0.046,-7.324,-59.021,-166.565
-0.420,0.145,0.087,-8.545,-62.134,-163.757
-0.626,0.174,0.129,-9.583,-67.322,-155.273
-0.827,0.179,0.130,-7.874,-74.158,-144.104
-1.085,0.146,0.043,-4.883,-72.266,-132.690
-1.372,0.105,-0.019,-4.272,-69.702,-119.751
-1.601,0.178,-0.131,-8.667,-56.824,-114.319
-1.791,0.125,-0.129,-17.639,-45.654,-119.507
-1.867,0.269,-0.138,-14.954,-33.997,-108.582
-1.822,0.268,-0.057,-5.188,-25.940,-65.430
-1.736,0.272,-0.066,5.798,-18.616,-18.250
-1.547,0.043,-0.016,4.211,-17.273,5.920
-1.375,-0.109,-0.047,-1.587,-20.325,25.085
-1.611,-0.445,-0.338,-16.174,-33.997,41.077
-3.374,-0.216,-0.604,-27.771,-44.067,47.668
-3.746,1.345,-0.625,-18.188,-42.725,13.733
-1.734,2.631,-0.468,3.235,-37.415,-46.204
1.508,3.148,0.342,30.273,-12.756,-95.703
2.722,1.950,-0.387,3.845,-13.794,-70.435
0.337,2.005,-1.408,-25.024,-9.888,15.625
-0.426,1.937,-0.877,16.052,8.301,90.698
-0.521,0.724,-0.592,34.790,9.827,111.694
-0.948,0.036,-0.189,52.124,3.479,103.516
-1.046,-0.257,0.204,42.358,3.357,70.190
-0.572,0.332,0.036,13.977,2.136,0.244
-0.441,0.992,-0.230,2.686,2.075,-27.954
-0.187,1.221,-0.449,5.188,-3.357,-18.127
-0.106,1.218,-0.387,9.033,-8.240,-6.409
-0.311,1.154,-0.302,14.832,-7.263,1.282
-0.369,0.994,-0.259,16.174,-5.432,3.357
-0.366,0.845,-0.261,10.498,-5.249,-0.854
-0.316,0.816,-0.281,2.197,-7.080,-9.827
-0.376,0.841,-0.302,-2.258,-8.667,-18.127
-0.420,0.837,-0.267,-5.127,-8.728,-23.926
-0.375,0.851,-0.243,-7.141,-7.019,-29.785
-0.379,0.853,-0.331,-9.705,-5.188,-33.691
-0.322,0.963,-0.354,-8.850,-1.465,-37.842
-0.302,1.056,-0.360,-5.615,4.272,-42.053
-0.318,1.059,-0.382,-2.075,6.470,-44.800
-0.280,0.972,-0.360,-1.831,2.075,-45.105
-0.271,0.949,-0.419,0.122,6.897,-48.645
-0.278,0.955,-0.454,4.883,22.278,-54.260
-0.250,0.961,-0.437,8.728,32.959,-58.044
-0.129,0.891,-0.374,3.967,32.654,-63.782
-0.078,0.873,-0.374,-3.296,24.048,-69.092
0.007,0.914,-0.347,-4.944,13.123,-68.176
0.009,0.943,-0.331,-3.113,5.432,-62.195
-0.017,0.957,-0.336,-0.671,1.831,-54.688
-0.065,0.966,-0.317,1.770,5.615,-48.584
-0.043,0.944,-0.288,2.136,12.268,-44.373
-0.037,0.901,-0.294,0.305,18.921,-39.795
-0.009,0.908,-0.234,-1.221,24.353,-33.569
0.063,0.885,-0.179,-4.028,25.879,-28.931
0.062,0.908,-0.187,-6.287,21.851,-25.269
-0.006,0.923,-0.221,-7.080,16.968,-19.836
-0.125,0.937,-0.223,-6.287,17.883,-13.489
-0.074,0.911,-0.321,-0.977,20.691,-9.338
0.056,0.854,-0.340,0.671,18.860,-5.188
-0.008,0.879,-0.363,0.916,16.479,-1.709
-0.085,0.890,-0.388,2.991,22.095,2.075
-0.020,0.884,-0.420,4.089,29.175,6.653
0.059,0.930,-0.390,5.066,28.198,10.193
0.022,0.990,-0.356,5.371,24.963,12.207
-0.052,1.078,-0.317,7.996,27.039,15.015
-0.083,1.092,-0.321,10.315,30.029,17.212
-0.059,1.130,-0.333,11.108,31.250,18.494
-0.061,1.193,-0.336,13.855,32.349,19.287
-0.052,1.240,-0.363,18.311,33.875,21.118
-0.046,1.246,-0.365,21.667,35.461,22.827
-0.140,1.228,-0.360,23.193,37.170,23.254
-0.255,1.198,-0.305,24.780,41.931,22.644
-0.198,1.194,-0.265,25.635,45.532,20.996
-0.042,1.163,-0.277,22.217,43.152,19.043
-0.067,1.217,-0.286,16.968,39.795,15.747
-0.123,1.304,-0.310,13.489,42.542,12.634
-0.106,1.329,-0.335,10.925,49.316,12.024
-0.086,1.394,-0.265,8.911,57.739,12.207
-0.004,1.520,-0.171,9.155,64.026,11.780
0.136,1.615,-0.233,8.972,64.514,12.146
0.276,1.694,-0.389,8.850,60.120,13.794
0.380,1.718,-0.492,7.629,54.199,16.785
0.439,1.723,-0.548,8.789,48.401,21.362
0.464,1.595,-0.578,11.169,44.800,29.236
0.368,1.422,-0.591,13.306,44.983,41.687
0.223,1.306,-0.614,13.000,41.260,53.223
0.070,1.373,-0.714,9.705,33.386,70.190
-0.183,1.504,-0.819,1.343,26.855,85.022

-0.333,1.182,-0.230,23.315,10.498,21.851
-0.360,1.234,-0.208,24.719,9.338,22.522
-0.364,1.307,-0.185,23.560,9.521,23.621
-0.372,1.433,-0.127,23.437,11.047,24.109
-0.215,1.521,-0.116,23.926,11.414,24.780
-0.177,1.542,-0.216,20.874,7.202,24.414
-0.191,1.653,-0.300,18.738,3.784,26.062
-0.124,1.705,-0.385,16.724,4.089,28.076
-0.107,1.694,-0.426,13.733,7.263,30.334
-0.072,1.662,-0.453,11.108,12.756,34.363
0.015,1.620,-0.461,8.423,20.264,37.659
0.055,1.549,-0.461,5.798,27.771,41.626
0.090,1.486,-0.445,4.578,35.767,46.265
0.084,1.413,-0.410,3.906,43.335,50.171
0.063,1.355,-0.378,4.700,49.805,53.040
0.001,1.289,-0.373,6.653,49.744,55.115
-0.048,1.247,-0.408,5.127,38.940,55.237
-0.161,1.293,-0.395,1.099,30.090,52.734
-0.275,1.389,-0.425,1.404,24.841,56.702
-0.375,1.333,-0.465,-1.831,15.137,60.242
-0.496,1.406,-0.547,-3.723,1.160,70.984
-0.656,1.420,-0.555,-4.578,-3.906,82.581
-0.841,1.437,-0.515,-2.930,-2.319,94.177
-0.800,1.472,-0.493,1.282,-2.319,105.835
-0.557,1.423,-0.515,2.563,-1.709,111.389
-0.492,1.365,-0.508,0.977,7.019,107.544
-0.561,1.279,-0.492,0.488,22.461,103.271
-0.529,1.206,-0.463,0.671,36.072,99.243
-0.441,1.144,-0.425,-0.549,43.030,93.872
-0.389,1.077,-0.372,-2.441,43.884,88.806
-0.391,1.040,-0.336,-4.089,39.490,83.557
-0.434,1.030,-0.305,-4.517,33.020,78.979
-0.389,0.958,-0.292,-6.897,25.818,75.745
-0.302,0.938,-0.284,-9.583,13.855,69.885
-0.311,0.910,-0.272,-12.390,3.052,62.866
-0.319,0.864,-0.320,-15.381,-3.784,57.312
-0.277,0.855,-0.356,-17.029,-6.592,49.377
-0.211,0.779,-0.322,-20.081,-7.141,41.077
-0.177,0.724,-0.263,-22.949,-7.751,32.898
-0.220,0.704,-0.231,-27.466,-5.737,21.729
-0.346,0.781,-0.231,-30.823,3.906,10.376
-0.242,0.771,-0.178,-29.724,16.968,0.183
-0.048,0.735,-0.099,-30.762,21.729,-11.414
-0.002,0.702,-0.010,-30.762,19.592,-22.888
-0.001,0.697,0.068,-31.311,16.357,-34.729
0.063,0.687,0.109,-29.907,7.996,-45.166
0.205,0.621,0.142,-27.649,-5.859,-55.298
0.276,0.559,0.185,-26.306,-20.813,-68.970
0.253,0.536,0.222,-26.550,-35.461,-82.214
0.232,0.532,0.230,-26.428,-50.354,-91.797
0.260,0.514,0.228,-25.818,-67.017,-98.267
0.301,0.442,0.187,-24.414,-86.060,-103.271
0.294,0.403,0.105,-23.560,-105.469,-109.497
0.192,0.367,-0.076,-24.170,-119.934,-117.065
-0.110,0.363,-0.208,-23.682,-117.004,-125.488
-0.413,0.331,-0.307,-19.409,-93.323,-135.681
-0.530,0.303,-0.225,-18.311,-62.500,-146.118
-0.522,0.370,-0.041,-15.137,-34.058,-155.151
-0.484,0.418,0.206,-7.690,-15.991,-158.264
-0.470,0.403,0.368,-2.197,-11.597,-156.250
-0.469,0.380,0.421,0.000,-26.917,-148.804
-0.542,0.351,0.390,-0.671,-49.377,-138.306
-0.696,0.304,0.291,-2.075,-72.876,-126.282
-0.886,0.255,0.128,-1.953,-90.454,-114.624
-1.109,0.205,-0.011,-2.136,-102.112,-102.295
-1.396,0.190,-0.112,-1.038,-103.455,-88.135
-1.612,0.174,-0.150,2.075,-98.572,-73.853
-1.713,0.157,-0.191,3.906,-90.515,-58.105
-1.705,0.138,-0.191,3.357,-83.557,-38.879
-1.743,0.165,-0.178,8.911,-61.951,-19.226
-1.605,0.055,-0.152,11.780,-44.739,2.441
-1.496,-0.031,-0.196,9.277,-33.264,26.001
-1.517,-0.203,-0.342,-0.061,-31.860,44.250
-2.016,-0.366,-0.617,-14.465,-40.344,58.472
-3.036,0.207,-0.563,-7.385,-36.560,63.232
-2.316,0.959,-0.310,7.263,-17.334,37.231
-0.805,1.505,-0.288,5.127,-3.357,-2.930
0.364,2.222,0.306,26.367,20.325,-29.236
0.976,2.094,0.055,32.898,31.616,-30.518
0.025,1.959,-0.420,12.939,28.625,-3.662
-0.469,2.095,-0.511,17.761,19.287,40.222
-0.253,1.113,-0.553,26.489,-3.357,76.965
-0.497,0.456,-0.487,32.166,-22.766,72.693
-0.761,0.066,-0.369,30.823,-26.550,56.702
-0.677,0.173,-0.180,17.212,-23.499,31.616
-0.536,0.551,-0.105,4.211,-14.771,0.732
-0.535,1.001,-0.100,-0.671,-6.226,-9.460
-0.507,1.164,-0.187,1.648,2.563,-8.240
-0.383,1.067,-0.333,1.831,9.399,-7.690
-0.330,1.009,-0.352,2.319,10.864,-6.592
-0.376,0.961,-0.302,-0.305,9.766,-6.226
-0.361,0.929,-0.219,-3.845,7.446,-9.033
-0.379,0.893,-0.183,-9.766,2.747,-14.526
-0.387,0.898,-0.180,-13.794,-0.854,-18.738
-0.410,0.854,-0.253,-17.029,-1.160,-23.254
-0.382,0.943,-0.326,-19.165,3.601,-27.954
-0.404,0.947,-0.353,-19.531,10.681,-29.663
-0.428,0.972,-0.307,-17.151,16.479,-28.870
-0.408,0.950,-0.282,-15.137,19.348,-30.457
-0.432,0.941,-0.296,-14.587,19.531,-35.767
-0.381,0.942,-0.333,-15.991,18.799,-40.649
-0.331,1.013,-0.375,-18.433,19.348,-45.105
-0.325,1.133,-0.433,-17.639,23.437,-47.546
-0.254,1.174,-0.431,-15.869,30.151,-50.293
-0.252,1.215,-0.367,-13.062,33.875,-53.101
-0.264,1.280,-0.348,-4.089,36.438,-50.415
-0.232,1.206,-0.306,-0.122,44.373,-52.612
-0.203,1.109,-0.268,-1.831,48.645,-60.364
-0.193,1.071,-0.235,0.488,48.462,-60.425
-0.146,1.022,-0.240,4.883,47.668,-50.537
-0.112,0.977,-0.221,7.568,43.274,-40.161
-0.032,0.930,-0.224,5.127,35.400,-34.058
-0.034,0.896,-0.258,0.122,29.175,-32.471
-0.116,0.909,-0.312,-3.113,27.466,-31.494
-0.146,0.898,-0.300,-2.319,31.250,-28.259
-0.120,0.854,-0.259,-0.305,36.194,-23.743
-0.107,0.803,-0.227,2.686,37.903,-17.639
-0.085,0.756,-0.201,4.578,35.461,-10.132
-0.042,0.700,-0.256,4.395,28.137,-4.883
-0.070,0.683,-0.286,3.479,20.813,-2.441
-0.121,0.679,-0.309,2.991,16.541,0.366
-0.112,0.676,-0.335,3.113,13.672,3.540
-0.132,0.680,-0.337,3.357,11.536,5.676
-0.179,0.709,-0.333,3.601,11.475,6.836
-0.183,0.700,-0.361,3.723,11.169,8.606
-0.171,0.714,-0.302,3.662,11.353,9.766
-0.193,0.735,-0.265,3.479,10.315,9.705
-0.191,0.808,-0.271,4.517,8.667,10.681
-0.100,0.851,-0.286,4.761,5.310,12.451
-0.133,0.923,-0.292,4.822,1.587,13.733
-0.147,0.985,-0.281,6.104,-1.526,15.442
-0.214,1.057,-0.293,7.874,-3.906,16.113
-0.236,1.144,-0.331,9.888,-1.709,16.113
-0.217,1.232,-0.326,11.719,3.845,16.235
-0.220,1.304,-0.338,12.756,10.315,15.991
-0.189,1.360,-0.340,14.099,18.066,16.846
-0.099,1.377,-0.284,14.893,22.217,18.127
-0.140,1.368,-0.227,14.709,23.804,19.714
-0.126,1.364,-0.215,13.306,26.184,19.409
-0.127,1.373,-0.247,11.047,30.090,18.738
-0.094,1.427,-0.277,8.057,35.767,18.127
-0.023,1.490,-0.310,6.287,40.588,20.447
0.079,1.529,-0.296,4.700,44.373,22.705
0.171,1.599,-0.322,4.150,45.837,24.780
0.236,1.676,-0.414,4.578,48.035,25.024
0.298,1.706,-0.485,4.272,48.096,23.987
0.327,1.768,-0.571,5.127,53.162,39.368
0.282,1.728,-0.604,5.432,62.378,47.791
0.139,1.625,-0.655,3.174,68.604,43.640
-0.117,1.701,-0.708,3.174,81.665,44.678
-0.160,1.751,-0.687,5.432,99.121,51.880
-0.073,1.761,-0.697,8.667,109.131,54.871
-0.042,1.661,-0.717,8.667,106.140,61.646
-0.364,1.453,-0.648,2.197,94.666,76.599
-0.580,1.455,-0.647,-2.319,62.012,96.008
-0.982,1.550,-0.642,-3.052,26.672,109.619
-1.383,1.661,-0.514,-4.883,7.385,122.498
-1.579,1.853,-0.406,0.183,7.324,139.771
-1.344,1.984,-0.430,8.545,21.057,153.381
-0.970,1.912,-0.422,14.221,40.405,156.616
-0.715,1.803,-0.319,21.118,54.565,156.555
-0.533,1.561,-0.330,24.902,62.073,155.823
-0.332,1.364,-0.317,26.306,56.702,152.283
-0.278,1.246,-0.254,25.146,39.001,150.513
-0.271,1.127,-0.241,23.437,17.761,150.330
-0.166,1.013,-0.227,20.813,-7.507,146.606
-0.068,0.904,-0.226,16.724,-30.518,138.489
0.058,0.768,-0.231,12.512,-48.401,127.258
0.084,0.588,-0.227,6.714,-54.382,113.770
0.114,0.510,-0.200,3.845,-49.011,96.802
0.150,0.546,-0.146,5.066,-36.621,76.233
0.180,0.532,-0.105,11.108,-21.240,56.580
0.268,0.433,-0.031,16.052,-6.531,40.100
0.389,0.320,0.054,18.127,1.282,21.973
0.481,0.277,0.121,21.484,1.343,1.526
0.541,0.218,0.159,19.836,-7.568,-16.724
0.588,0.245,0.151,18.494,-19.775,-33.997
0.576,0.252,0.106,17.944,-32.104,-48.767
0.513,0.188,0.073,14.587,-41.748,-60.425
0.430,0.135,0.051,10.376,-48.157,-72.876
0.286,0.092,0.024,7.324,-50.049,-87.036
0.248,0.077,-0.009,4.517,-47.729,-102.051
0.268,0.090,0.001,1.465,-44.983,-116.699
0.224,0.139,0.025,-1.892,-44.678,-127.075
0.080,0.190,0.020,-3.723,-44.250,-134.338
0.033,0.181,-0.016,-3.113,-46.692,-141.357
-0.001,0.148,-0.001,-5.554,-50.171,-148.132
-0.093,0.172,-0.019,-9.583,-53.650,-151.917
-0.221,0.223,-0.010,-11.902,-57.556,-150.940
-0.284,0.186,0.045,-15.259,-63.660,-144.653
-0.382,0.242,0.007,-16.052,-75.684,-138.916
-0.617,0.230,-0.027,-15.930,-84.717,-133.667
-0.778,0.235,-0.057,-16.418,-91.003,-127.747
-0.942,0.267,-0.125,-18.066,-93.262,-119.629
-1.158,0.283,-0.165,-17.883,-92.590,-108.032
-1.315,0.286,-0.199,-17.029,-89.233,-94.788
-1.446,0.284,-0.224,-17.090,-86.426,-80.811
-1.552,0.306,-0.213,-15.198,-78.064,-64.575
-1.569,0.309,-0.151,-10.132,-63.538,-47.485
-1.521,0.284,-0.117,-4.883,-50.110,-27.222
-1.339,0.205,0.004,-2.563,-41.199,-7.751
-1.321,0.009,-0.075,-11.414,-42.114,10.559
-2.163,-0.131,-0.507,-24.780,-48.157,31.677
-3.016,0.311,-0.248,-12.329,-40.222,46.326
-2.620,0.862,0.044,3.601,-20.325,29.053
-1.320,1.503,0.495,11.841,-3.662,3.174
0.139,1.790,0.397,17.761,-2.869,-16.785
0.796,1.862,-0.150,22.461,-13.550,-34.241
0.402,1.709,-0.667,8.301,-19.592,-31.006
-0.461,1.936,-1.262,-16.174,-30.151,-4.150
-0.176,1.974,-1.094,-3.113,-32.837,31.677
-0.210,1.170,-0.515,12.512,-27.283,51.941
-0.724,0.624,-0.100,21.240,-18.372,57.190
-1.021,0.324,0.157,27.100,-7.385,53.833
-0.770,0.303,0.207,19.104,-2.197,20.569
-0.455,0.533,-0.065,3.479,-4.333,-13.855
-0.351,0.786,-0.378,-8.728,-5.310,-24.353
-0.330,1.003,-0.494,-10.437,-3.784,-25.391
-0.334,1.146,-0.342,-8.850,0.061,-19.287
-0.301,1.193,-0.199,-6.348,3.479,-11.963
-0.307,1.115,-0.180,-5.005,2.014,-7.263
-0.328,0.932,-0.222,-6.409,-2.258,-7.690
-0.403,0.783,-0.286,-11.047,-5.798,-13.245
-0.493,0.762,-0.293,-15.259,-6.287,-19.897
-0.425,0.847,-0.244,-17.273,-1.892,-25.635
-0.420,0.891,-0.286,-17.212,3.967,-30.579
-0.434,0.955,-0.262,-16.357,7.385,-33.813
-0.351,1.000,-0.292,-15.381,12.756,-37.415
-0.281,0.986,-0.351,-14.954,15.076,-40.466
-0.355,0.902,-0.343,-14.709,8.850,-36.377
-0.454,0.938,-0.320,-15.991,15.015,-41.382
-0.406,1.002,-0.355,-17.212,30.701,-56.396
-0.357,0.994,-0.427,-16.235,35.767,-60.730
-0.268,1.025,-0.452,-11.414,35.889,-56.458
-0.176,1.066,-0.388,-9.521,37.170,-59.509
-0.173,1.080,-0.373,-7.996,36.316,-61.829
-0.194,1.087,-0.362,-4.211,35.461,-58.960
-0.132,1.036,-0.305,-1.465,36.560,-56.946

-0.234,1.275,-0.225,18.433,17.151,34.729
-0.312,1.345,-0.260,16.968,19.958,32.898
-0.262,1.460,-0.288,18.127,26.184,33.020
-0.180,1.529,-0.325,19.226,30.273,32.471
-0.107,1.577,-0.402,17.822,31.921,32.349
-0.017,1.609,-0.457,15.442,33.386,34.363
0.018,1.642,-0.461,13.977,36.499,35.217
0.085,1.651,-0.469,13.489,41.016,36.133
0.137,1.610,-0.486,12.695,45.837,37.109
0.189,1.558,-0.507,12.390,51.453,40.222
0.175,1.499,-0.493,12.207,57.129,47.058
0.109,1.460,-0.465,10.437,61.340,53.467
-0.040,1.466,-0.441,9.460,65.308,56.091
-0.129,1.447,-0.464,8.789,63.049,60.425
-0.165,1.404,-0.514,3.296,49.194,69.214
-0.136,1.528,-0.478,0.305,29.419,76.843
-0.207,1.560,-0.492,0.305,5.066,83.130
-0.335,1.619,-0.518,3.357,-14.771,97.534
-0.657,1.599,-0.535,6.653,-28.992,112.610
-0.970,1.627,-0.497,7.080,-39.734,109.375
-0.869,1.678,-0.576,3.296,-39.063,105.225
-0.676,1.786,-0.583,6.042,-24.231,121.948
-0.617,1.732,-0.620,8.911,-3.906,124.634
-0.620,1.629,-0.625,11.536,19.348,124.817
-0.554,1.450,-0.598,13.245,37.781,124.023
-0.440,1.329,-0.516,9.338,43.335,117.310
-0.372,1.304,-0.458,8.118,41.931,106.628
-0.324,1.256,-0.356,7.874,35.461,98.633
-0.264,1.224,-0.279,8.728,24.902,92.224
-0.223,1.188,-0.215,10.559,13.611,81.970
-0.168,1.098,-0.171,11.963,1.831,70.984
-0.061,0.976,-0.139,11.414,-10.681,59.814
-0.006,0.854,-0.096,9.583,-21.667,48.279
0.018,0.721,-0.096,8.728,-31.433,38.757
0.053,0.615,-0.105,5.981,-38.208,28.748
0.038,0.486,-0.081,3.662,-41.931,18.433
0.013,0.359,-0.059,1.831,-46.326,7.568
-0.002,0.359,-0.037,0.427,-49.561,-7.263
0.036,0.349,-0.041,0.671,-52.612,-23.865
0.093,0.267,-0.013,-2.380,-56.396,-37.964
0.087,0.265,0.010,-5.798,-58.594,-51.453
0.053,0.280,0.039,-6.592,-59.753,-62.134
0.035,0.217,0.058,-7.324,-61.951,-72.327
0.067,0.173,0.072,-8.850,-65.186,-83.069
0.093,0.132,0.093,-9.155,-70.496,-94.910
0.037,0.136,0.104,-7.507,-76.050,-107.605
0.071,0.109,0.009,-6.653,-84.106,-118.958
0.108,0.124,-0.062,-8.789,-91.431,-130.188
-0.001,0.165,-0.118,-9.277,-93.872,-139.648
-0.156,0.185,-0.114,-7.141,-90.759,-146.423
-0.247,0.164,-0.073,-6.470,-86.060,-150.269
-0.350,0.170,-0.022,-6.165,-81.177,-151.489
-0.464,0.176,0.023,-5.371,-77.393,-147.888
-0.583,0.120,0.059,-5.615,-77.087,-139.038
-0.721,0.042,0.049,-7.690,-81.299,-126.953
-0.936,-0.008,0.023,-9.888,-86.365,-114.319
-1.185,-0.010,-0.036,-11.292,-90.759,-101.868
-1.413,-0.013,-0.173,-13.062,-90.027,-90.027
-1.589,-0.063,-0.279,-15.503,-85.266,-76.965
-1.646,-0.083,-0.337,-21.484,-82.214,-59.814
-1.730,-0.034,-0.329,-20.630,-66.345,-40.283
-1.694,-0.042,-0.308,-19.470,-51.331,-18.311
-1.562,-0.130,-0.271,-20.874,-41.626,0.732
-1.530,-0.154,-0.184,-19.348,-33.142,12.207
-1.320,-0.252,-0.064,-17.578,-21.179,18.372
-1.075,-0.434,-0.097,-21.057,-14.526,24.719
-1.576,-0.970,-0.657,-39.551,-18.311,45.654
-2.350,-0.739,-0.325,-26.001,-6.714,72.693
-1.970,0.247,0.744,4.456,24.719,29.907
-2.550,1.642,1.198,18.616,43.945,-32.227
-1.233,2.974,0.407,20.264,19.714,-70.007
0.367,4.000,0.378,29.846,14.771,-134.216
1.745,3.660,-0.926,-7.996,6.958,-123.779
1.158,2.805,-1.586,-13.733,-16.357,-2.441
0.013,1.581,-1.125,26.978,-18.616,90.332
-1.112,0.173,-0.524,34.729,-10.559,105.774
-1.921,-0.542,-0.144,50.110,-10.193,110.107
-0.802,-0.982,0.450,32.166,-3.906,68.237
0.026,0.043,0.155,6.714,-10.132,18.738
-0.457,0.822,-0.275,-14.526,-20.264,-37.292
-0.623,1.448,-0.479,-24.963,-11.902,-44.067
-0.453,1.433,-0.423,-19.653,0.977,-30.518
-0.337,1.289,-0.301,-9.033,15.564,-24.231
-0.388,1.038,-0.170,-4.028,20.264,-18.188
-0.338,0.896,-0.181,-7.202,13.428,-20.142
-0.313,0.825,-0.263,-11.780,2.380,-25.635
-0.321,0.784,-0.285,-14.404,-7.996,-28.625
-0.396,0.752,-0.279,-17.456,-9.705,-30.640
-0.471,0.835,-0.281,-19.104,-6.104,-35.522
-0.461,0.919,-0.318,-17.090,3.235,-39.246
-0.405,0.966,-0.361,-14.099,13.489,-45.105
-0.350,0.983,-0.357,-8.606,14.893,-44.678
-0.322,0.909,-0.327,-6.836,13.000,-47.729
-0.319,0.850,-0.360,-10.254,20.386,-61.096
-0.345,0.844,-0.334,-10.132,23.193,-70.862
-0.308,0.927,-0.369,-4.517,21.667,-70.740
-0.203,1.021,-0.320,4.944,15.808,-57.983
-0.171,0.961,-0.336,6.775,10.132,-51.086
-0.191,0.970,-0.327,4.517,5.981,-52.979
-0.200,0.943,-0.311,2.808,4.822,-57.983
-0.176,0.930,-0.313,0.671,7.629,-65.247
-0.134,0.876,-0.347,-2.197,9.216,-68.787
-0.099,0.864,-0.338,-4.028,8.118,-68.115
-0.132,0.863,-0.313,-4.761,6.592,-64.697
-0.125,0.899,-0.286,-4.272,5.920,-58.105
-0.029,0.917,-0.220,-3.235,5.859,-52.063
-0.031,0.902,-0.247,-5.066,2.991,-46.875
-0.047,0.919,-0.268,-6.409,-0.549,-40.771
-0.012,0.932,-0.290,-7.019,-2.136,-36.438
0.000,0.934,-0.319,-7.019,-2.808,-32.715
-0.049,0.942,-0.373,-7.385,-1.831,-27.466
-0.080,0.961,-0.367,-4.089,2.686,-22.278
-0.057,0.936,-0.358,-0.793,9.521,-17.944
-0.083,0.907,-0.378,1.038,16.724,-12.207
-0.038,0.911,-0.354,3.235,22.339,-5.188
0.047,0.921,-0.325,4.211,22.583,-0.488
0.042,0.964,-0.316,4.028,21.423,1.770
0.062,1.019,-0.286,3.418,20.752,5.798
0.004,1.086,-0.281,4.700,19.775,10.498
-0.007,1.120,-0.260,8.911,21.545,15.808
0.021,1.113,-0.302,12.695,22.827,20.935
-0.010,1.085,-0.387,14.709,23.560,25.452
-0.079,1.123,-0.401,16.418,28.076,27.649
-0.092,1.148,-0.361,18.494,33.997,28.381
-0.055,1.173,-0.339,19.897,38.147,28.992
-0.046,1.190,-0.288,20.813,40.222,29.114
-0.014,1.218,-0.221,20.996,38.635,30.212
-0.003,1.260,-0.165,21.790,33.203,31.189
-0.000,1.197,-0.244,19.836,23.804,31.433
-0.136,1.182,-0.278,16.479,18.799,31.189
-0.215,1.180,-0.259,15.564,22.522,32.532
-0.202,1.156,-0.236,15.320,28.809,33.691
-0.170,1.176,-0.248,13.062,34.424,33.569
-0.100,1.216,-0.270,9.827,41.382,30.457
-0.038,1.275,-0.230,7.935,41.382,28.503
0.002,1.405,-0.259,10.742,42.603,37.537
0.032,1.382,-0.266,9.338,44.983,34.546
0.061,1.414,-0.271,10.071,46.875,22.766
0.080,1.477,-0.274,13.855,54.077,21.057
0.143,1.576,-0.278,18.616,61.646,33.813
0.199,1.639,-0.369,21.790,63.538,46.448
0.226,1.647,-0.485,20.264,60.852,53.162
0.192,1.675,-0.551,17.639,57.495,58.655
0.217,1.610,-0.574,17.090,53.284,61.218
0.222,1.533,-0.576,15.930,44.861,61.707
0.098,1.512,-0.566,15.930,37.415,63.660
-0.111,1.554,-0.669,18.555,27.893,68.909
-0.393,1.566,-0.772,16.357,23.132,81.116
-0.502,1.567,-0.755,10.681,13.245,95.520
-0.922,1.680,-0.799,7.751,1.160,106.628
-1.412,1.814,-0.704,6.470,-5.249,122.253
-1.457,1.937,-0.663,7.507,-7.996,129.822
-1.340,1.975,-0.660,4.700,-2.136,135.315
-1.055,2.073,-0.651,14.526,12.207,160.034
-0.871,1.926,-0.631,17.944,23.254,168.823
-0.745,1.752,-0.576,20.996,35.583,173.523
-0.576,1.567,-0.497,21.729,44.312,172.913
-0.434,1.402,-0.447,21.423,42.542,166.260
-0.287,1.263,-0.426,20.142,33.325,158.569
-0.137,1.136,-0.377,18.494,19.104,150.757
-0.008,1.019,-0.332,16.418,3.540,141.235
0.095,0.892,-0.285,14.282,-6.775,131.165
0.146,0.723,-0.254,11.475,-11.169,119.446
0.172,0.599,-0.230,9.155,-9.216,104.065
0.240,0.541,-0.228,10.315,-5.005,87.952
0.349,0.399,-0.197,11.047,-1.770,72.937
0.390,0.230,-0.153,11.292,0.122,56.702
0.444,0.112,-0.145,9.949,-0.854,35.950
0.507,0.088,-0.134,8.057,-4.944,13.184
0.526,0.100,-0.102,5.371,-11.230,-8.057
0.493,0.131,-0.093,2.136,-16.296,-26.917
0.472,0.152,-0.083,0.244,-22.217,-44.067
0.466,0.145,-0.064,-2.258,-27.710,-59.631
0.470,0.119,-0.057,-5.432,-34.851,-73.364
0.449,0.118,-0.057,-8.911,-43.152,-84.900
0.415,0.094,-0.060,-12.024,-53.955,-95.093
0.329,0.074,-0.084,-14.465,-63.293,-105.408
0.200,0.067,-0.079,-15.625,-68.909,-116.272
0.106,0.075,-0.101,-16.174,-72.815,-126.160
0.116,0.068,-0.138,-18.982,-77.087,-134.888
0.069,0.085,-0.163,-22.888,-78.308,-142.822
-0.073,0.120,-0.167,-24.109,-76.233,-147.644
-0.222,0.121,-0.187,-24.597,-71.716,-150.696
-0.336,0.133,-0.157,-25.452,-67.383,-151.917
-0.458,0.188,-0.088,-25.818,-63.599,-151.733
-0.548,0.259,-0.067,-24.475,-62.561,-147.827
-0.642,0.305,-0.050,-25.513,-63.965,-139.832
-0.807,0.358,-0.022,-26.062,-65.796,-128.967
-0.957,0.406,-0.039,-24.414,-68.237,-116.455
-1.122,0.407,-0.103,-23.987,-68.787,-102.783
-1.305,0.426,-0.133,-22.156,-66.406,-87.097
-1.460,0.400,-0.158,-19.409,-61.951,-70.740
-1.547,0.395,-0.152,-16.907,-58.472,-54.626
-1.528,0.378,-0.153,-14.160,-51.514,-38.025
-1.477,0.341,-0.167,-11.597,-41.992,-22.522
-1.431,0.305,-0.117,-6.226,-32.349,-6.714
-1.267,0.237,-0.005,-0.916,-24.597,4.883
-0.979,0.093,0.102,-1.038,-22.339,12.146
-1.046,-0.284,-0.368,-16.602,-30.884,17.639
-1.756,-0.349,-0.371,-27.100,-29.419,24.292
-1.980,0.415,0.086,-11.719,-15.198,13.672
-2.222,1.658,0.245,-2.075,-0.549,-24.353
-1.616,2.983,0.228,7.996,7.263,-52.002
0.383,3.664,0.299,25.696,3.479,-64.697
1.637,2.833,0.004,23.071,2.075,-38.330
0.902,1.893,-0.907,9.827,-4.211,32.043
-0.085,1.245,-0.978,10.986,-5.249,71.106
-0.557,0.561,-0.889,23.560,-9.583,87.158
-1.123,-0.058,-0.624,31.006,-16.785,83.252
-1.122,-0.244,0.026,28.503,-13.733,57.861
-0.773,0.205,0.255,15.808,-4.639,4.700
-0.592,0.927,0.123,7.812,2.686,-27.710
-0.371,1.269,-0.177,5.493,5.920,-33.264
-0.226,1.207,-0.486,2.380,7.263,-27.527
-0.255,1.136,-0.542,4.944,8.118,-14.648
-0.319,1.014,-0.358,9.949,7.629,-7.080
-0.404,0.899,-0.211,9.827,4.761,-8.667
-0.360,0.859,-0.151,7.324,1.709,-15.137
-0.339,0.829,-0.188,-0.122,-0.427,-22.827
-0.329,0.841,-0.275,-5.798,-1.465,-26.611
-0.357,0.855,-0.300,-10.498,-1.831,-27.405
-0.340,0.897,-0.270,-13.245,-1.282,-30.334
-0.354,0.961,-0.257,-12.390,0.854,-32.837
-0.340,0.935,-0.260,-10.071,3.845,-35.645
-0.353,0.912,-0.270,-12.329,4.150,-38.391
-0.317,0.901,-0.282,-11.780,1.221,-38.574
-0.339,0.859,-0.318,-12.268,3.723,-41.260
-0.375,0.816,-0.352,-14.832,13.794,-48.401
-0.413,0.916,-0.329,-16.663,22.583,-56.885
-0.309,0.946,-0.300,-17.517,27.832,-63.965
-0.282,0.958,-0.342,-18.372,26.794,-66.772
-0.168,0.998,-0.353,-13.062,21.667,-63.904
-0.145,0.993,-0.363,-7.446,15.564,-61.218
-0.142,0.990,-0.369,-4.089,14.954,-60.791
-0.158,0.964,-0.376,-2.869,16.785,-63.110
-0.143,0.946,-0.390,-1.709,18.799,-64.819
-0.091,0.939,-0.382,-0.427,20.081,-64.697
-0.018,0.918,-0.378,0.732,18.250,-62.927

-0.312,1.342,-0.327,31.799,30.396,46.753
-0.150,1.387,-0.373,31.128,30.090,48.096
-0.193,1.391,-0.456,26.001,28.198,48.584
-0.279,1.503,-0.439,22.766,29.602,49.805
-0.253,1.594,-0.432,19.714,35.706,50.659
-0.203,1.637,-0.403,17.944,41.687,50.537
-0.096,1.653,-0.378,17.822,44.739,49.316
-0.033,1.628,-0.348,17.639,44.861,49.500
0.050,1.666,-0.345,18.066,43.518,48.584
0.079,1.690,-0.370,19.226,41.931,47.119
0.072,1.688,-0.387,20.325,41.748,47.546
0.073,1.687,-0.384,21.179,40.833,51.025
0.026,1.710,-0.413,22.339,37.537,60.059
0.087,1.766,-0.534,23.560,32.593,70.251
0.164,1.731,-0.580,24.353,28.687,75.684
0.232,1.621,-0.718,25.879,22.156,83.740
0.298,1.479,-0.657,25.269,11.292,92.896
0.019,1.383,-0.720,21.729,-7.019,104.797
-0.468,1.331,-0.825,14.771,-25.208,109.680
-1.008,1.399,-0.712,6.470,-33.386,98.450
-1.443,1.676,-0.701,9.094,-25.391,105.835
-1.423,1.670,-0.877,5.676,-9.766,117.249
-0.982,1.822,-0.845,1.831,5.798,116.516
-0.874,1.747,-0.803,1.038,29.846,109.924
-0.797,1.567,-0.719,3.723,57.068,107.300
-0.650,1.405,-0.573,6.836,80.627,101.563
-0.498,1.302,-0.409,10.071,88.379,92.834
-0.334,1.210,-0.237,12.268,82.214,84.595
-0.191,1.112,-0.070,11.047,61.218,76.172
-0.131,1.026,-0.010,8.789,33.142,69.031
-0.073,0.890,0.011,5.676,4.211,60.913
-0.040,0.770,-0.026,2.014,-20.447,50.903
-0.028,0.656,-0.044,-0.549,-37.720,40.283
0.044,0.536,-0.013,-3.967,-49.133,28.015
0.123,0.411,0.001,-5.005,-57.190,15.198
0.169,0.332,0.011,-2.563,-62.744,1.160
0.254,0.227,-0.027,-1.709,-67.444,-12.390
0.354,0.179,-0.088,-5.310,-70.007,-27.466
0.238,0.166,-0.035,-6.958,-67.078,-43.823
0.088,0.129,0.000,-4.883,-59.143,-61.646
0.065,0.121,0.015,-3.601,-50.171,-82.825
0.060,0.132,0.055,-3.479,-39.917,-103.943
0.083,0.137,0.092,-2.441,-29.907,-121.887
0.121,0.126,0.127,-2.625,-24.109,-135.925
0.141,0.131,0.140,-2.380,-25.452,-147.339
0.089,0.110,0.110,-3.845,-31.311,-155.701
0.065,0.084,0.076,-4.944,-39.612,-163.147
0.043,0.075,0.086,-9.155,-49.744,-168.518
-0.086,0.116,0.121,-11.536,-61.035,-168.762
-0.241,0.141,0.119,-12.817,-75.134,-164.551
-0.398,0.107,0.099,-14.221,-90.515,-157.776
-0.655,0.074,0.039,-14.526,-101.746,-149.902
-0.892,0.035,-0.057,-15.991,-104.980,-139.832
-1.178,0.015,-0.125,-17.212,-100.098,-126.892
-1.473,0.036,-0.156,-17.395,-92.712,-110.535
-1.696,0.027,-0.133,-16.174,-85.388,-92.163
-1.739,0.024,-0.144,-15.320,-82.153,-73.303
-1.812,0.026,-0.142,-12.329,-69.946,-55.664
-1.814,0.054,-0.162,-9.583,-59.937,-34.363
-1.718,-0.000,-0.165,-9.338,-53.040,-10.864
-1.603,-0.057,-0.177,-8.179,-49.072,9.033
-1.378,-0.161,-0.145,-7.812,-46.143,23.682
-1.231,-0.345,-0.192,-10.681,-49.072,33.997
-1.735,-0.825,-0.552,-24.536,-56.946,46.692
-2.393,-0.672,-0.339,-15.137,-49.500,66.162
-1.940,-0.111,0.224,1.465,-32.593,55.542
-1.972,1.245,0.578,11.169,-9.521,4.761
-1.033,2.144,-0.236,7.446,-14.404,-39.063
0.046,3.499,-0.193,8.179,-11.353,-88.440
0.796,3.500,-0.617,-0.122,7.690,-79.712
0.327,2.732,-0.868,2.869,16.418,7.385
-0.351,1.681,-0.613,31.128,18.433,87.891
-0.812,0.568,-0.427,44.067,7.202,102.417
-1.032,-0.213,-0.203,54.382,-0.610,93.201
-0.631,-0.689,0.151,37.659,-4.944,66.101
-0.334,-0.296,0.138,8.911,-15.259,5.859
-0.521,0.462,-0.084,-12.207,-19.897,-36.255
-0.579,1.095,-0.295,-24.109,-15.991,-46.692
-0.506,1.353,-0.418,-27.893,-6.104,-45.593
-0.494,1.447,-0.428,-19.287,7.996,-31.860
-0.384,1.276,-0.319,-11.414,17.517,-20.203
-0.375,1.088,-0.309,-10.986,18.372,-22.034
-0.387,0.969,-0.270,-12.512,12.695,-26.855
-0.437,0.797,-0.233,-13.855,6.042,-29.785
-0.456,0.683,-0.295,-20.142,3.967,-35.950
-0.480,0.770,-0.305,-25.452,8.362,-42.847
-0.437,0.943,-0.345,-22.827,15.686,-47.852
-0.406,1.092,-0.375,-16.052,23.804,-52.795
-0.384,1.102,-0.399,-11.292,29.297,-56.763
-0.350,1.069,-0.375,-7.751,33.081,-60.364
-0.272,0.974,-0.306,-6.653,34.851,-62.805
-0.268,0.919,-0.287,-8.118,33.691,-62.744
-0.239,0.899,-0.253,-8.545,32.166,-61.646
-0.231,0.905,-0.263,-9.644,29.175,-61.279
-0.187,0.911,-0.222,-9.766,23.193,-59.998
-0.173,0.900,-0.253,-11.230,18.738,-59.998
-0.208,0.858,-0.278,-11.841,19.226,-59.814
-0.216,0.853,-0.268,-7.996,23.132,-56.274
-0.182,0.801,-0.284,-5.432,24.780,-50.720
-0.111,0.792,-0.263,-3.174,23.071,-44.495
-0.078,0.768,-0.303,-2.502,16.846,-39.551
-0.126,0.750,-0.362,-3.601,9.644,-35.828
-0.126,0.740,-0.390,-3.662,5.188,-33.081
-0.069,0.738,-0.423,-6.165,3.967,-32.043
-0.045,0.778,-0.445,-10.071,6.104,-31.189
-0.103,0.844,-0.411,-10.071,10.193,-28.381
-0.130,0.894,-0.430,-7.874,15.076,-23.987
-0.120,0.880,-0.388,-5.249,22.095,-18.860
-0.061,0.889,-0.359,-2.075,26.733,-13.733
-0.040,0.893,-0.333,0.977,25.513,-7.080
0.032,0.888,-0.317,1.831,20.264,-0.549
0.080,0.944,-0.315,0.916,11.536,4.517
-0.018,1.011,-0.310,0.427,5.493,10.620
-0.068,1.077,-0.321,0.854,5.127,16.602
-0.070,1.123,-0.264,2.380,8.484,22.095
-0.056,1.135,-0.230,4.089,10.132,27.649
-0.073,1.117,-0.240,4.883,8.423,33.386
0.015,1.192,-0.199,7.935,5.371,37.781
0.027,1.175,-0.323,9.399,-0.671,42.969
-0.104,1.194,-0.338,12.024,-4.333,47.791
-0.213,1.171,-0.371,16.296,-3.418,49.438
-0.220,1.097,-0.374,19.531,2.014,48.767
-0.240,1.062,-0.381,20.752,9.766,47.546
-0.283,1.014,-0.347,20.935,15.503,46.509
-0.346,1.015,-0.330,20.874,19.287,43.213
-0.420,0.984,-0.328,18.677,25.879,36.926
-0.391,1.036,-0.298,15.564,33.752,28.931
-0.372,1.105,-0.315,11.597,40.466,22.339
-0.299,1.188,-0.286,7.080,45.776,18.616
-0.268,1.320,-0.261,2.136,49.438,16.479
-0.222,1.447,-0.196,0.061,53.101,14.771
-0.172,1.576,-0.192,-1.343,55.664,12.451
-0.090,1.664,-0.293,-0.610,57.556,11.108
-0.006,1.723,-0.434,-0.610,60.486,10.071
0.077,1.686,-0.495,-1.221,61.584,9.216
0.155,1.654,-0.569,-1.587,58.228,18.921
0.191,1.578,-0.567,-2.625,55.847,25.757
0.084,1.544,-0.526,-2.747,59.509,18.616
-0.052,1.539,-0.498,4.150,69.824,15.991
-0.066,1.513,-0.535,10.986,74.951,36.987
-0.112,1.549,-0.597,10.864,65.796,59.937
-0.273,1.693,-0.669,7.080,46.204,73.792
-0.521,1.677,-0.853,1.953,24.048,70.679
-0.932,1.733,-0.849,-3.906,12.817,86.975
-1.240,1.822,-0.790,-2.502,9.033,119.019
-1.293,1.948,-0.710,5.737,15.442,140.808
-1.224,1.945,-0.664,11.292,28.564,153.564
-0.991,1.954,-0.691,13.672,41.748,160.583
-0.788,1.926,-0.646,17.212,56.152,163.330
-0.637,1.819,-0.557,20.081,69.092,163.269
-0.529,1.717,-0.501,25.513,83.923,160.767
-0.353,1.605,-0.430,30.640,84.961,155.823
-0.151,1.479,-0.369,33.630,73.608,151.306
0.031,1.343,-0.288,35.095,52.368,144.958
0.198,1.192,-0.232,34.241,26.306,135.681
0.342,1.036,-0.209,33.020,1.099,126.160
0.382,0.777,-0.188,28.320,-16.968,116.699
0.364,0.616,-0.186,24.048,-25.574,104.065
0.389,0.500,-0.171,22.339,-28.992,89.355
0.431,0.425,-0.193,21.851,-31.860,72.998
0.433,0.352,-0.191,19.653,-31.616,53.772
0.405,0.333,-0.176,18.433,-29.053,31.433
0.419,0.271,-0.170,16.724,-26.428,11.536
0.492,0.195,-0.110,14.404,-25.696,-7.446
0.531,0.175,-0.079,11.902,-27.527,-28.748
0.496,0.192,-0.044,8.728,-30.151,-47.485
0.462,0.205,0.007,7.446,-36.072,-61.218
0.466,0.194,0.031,4.272,-44.678,-73.853
0.428,0.204,0.038,0.977,-54.443,-86.121
0.335,0.210,0.047,-0.244,-63.416,-97.534
0.262,0.188,0.005,-0.427,-72.021,-108.704
0.235,0.135,-0.040,-2.441,-80.383,-119.080
0.135,0.136,-0.080,-5.188,-84.412,-129.395
-0.038,0.159,-0.099,-5.798,-80.505,-137.268
-0.100,0.169,-0.112,-6.714,-75.806,-143.433
-0.162,0.164,-0.101,-9.521,-73.242,-148.193
-0.282,0.225,-0.063,-9.521,-69.824,-151.672
-0.389,0.230,-0.018,-9.338,-66.833,-151.794
-0.480,0.280,0.020,-9.277,-66.833,-149.048
-0.633,0.327,0.031,-8.057,-68.787,-143.982
-0.813,0.365,0.012,-6.714,-72.388,-136.841
-1.005,0.408,-0.051,-5.432,-73.425,-128.174
-1.207,0.412,-0.124,-4.822,-69.763,-117.859
-1.392,0.436,-0.139,-4.333,-62.988,-105.530
-1.517,0.475,-0.104,-2.991,-58.105,-89.844
-1.573,0.496,-0.063,-0.305,-54.565,-71.289
-1.603,0.479,-0.050,4.822,-49.255,-52.856
-1.613,0.417,-0.062,8.057,-43.274,-33.691
-1.580,0.336,-0.093,9.216,-36.621,-15.747
-1.491,0.249,-0.119,9.583,-29.480,-0.183
-1.368,0.179,-0.109,9.827,-21.484,13.550
-1.195,0.101,-0.069,10.925,-14.465,25.635
-1.090,0.008,-0.026,10.498,-10.010,35.889
-1.260,-0.127,-0.117,8.301,-8.301,45.349
-1.516,-0.096,-0.355,10.864,-9.583,42.236
-1.227,0.197,-0.354,5.676,-5.249,14.282
-1.254,0.812,-0.459,-9.338,0.610,-16.907
-1.291,1.795,-0.461,-4.578,7.324,-39.551
-0.365,2.415,-0.398,6.897,18.921,-52.185
0.841,2.599,-0.312,7.446,27.771,-49.744
0.982,2.459,-0.295,4.211,30.029,-18.127
0.079,2.053,-0.408,9.888,22.522,40.527
-0.297,1.251,-0.228,22.644,3.418,76.050
-0.752,0.454,-0.226,26.794,-11.536,76.599
-1.120,0.023,-0.285,25.391,-21.606,64.758
-0.769,-0.012,-0.234,13.916,-23.193,34.058
-0.427,0.287,-0.188,-2.380,-19.775,-8.301
-0.374,0.831,-0.208,-11.658,-15.625,-29.053
-0.455,1.129,-0.198,-9.827,-7.324,-28.320
-0.465,1.182,-0.290,-6.226,-0.610,-19.958
-0.426,1.140,-0.295,-0.610,6.042,-12.146
-0.385,1.003,-0.288,1.526,8.789,-9.949
-0.362,0.870,-0.221,-0.244,7.385,-12.207
-0.341,0.827,-0.184,-5.005,4.761,-18.921
-0.350,0.821,-0.162,-8.972,1.526,-24.719
-0.404,0.808,-0.209,-13.611,-1.038,-29.114
-0.353,0.894,-0.187,-14.771,-1.648,-32.410
-0.386,0.903,-0.218,-14.771,-1.648,-33.875
-0.358,0.950,-0.223,-14.893,0.549,-35.461
-0.394,0.943,-0.239,-15.564,4.150,-38.025
-0.378,0.944,-0.212,-15.259,8.545,-39.429
-0.407,0.908,-0.275,-15.808,12.695,-42.053
-0.341,0.935,-0.278,-15.198,15.686,-45.898
-0.261,0.877,-0.298,-17.029,14.282,-47.302
-0.280,0.927,-0.331,-16.846,14.832,-48.523
-0.311,0.941,-0.343,-15.564,20.996,-52.734
-0.327,0.980,-0.335,-14.648,29.785,-57.861
-0.275,0.944,-0.319,-14.893,35.339,-63.782
-0.233,0.952,-0.310,-13.916,34.485,-64.819
-0.149,0.936,-0.323,-10.864,27.649,-61.768
-0.052,0.967,-0.324,-7.385,18.677,-58.105
0.019,0.985,-0.351,-4.517,11.414,-55.725
0.018,1.016,-0.349,-2.869,6.104,-51.697
-0.032,1.015,-0.335,-0.305,2.319,-46.692
-0.035,0.996,-0.327,3.479,-2.014,-40.955
-0.059,0.925,-0.304,6.653,-6.958,-34.912
-0.041,0.874,-0.263,8.118,-13.123,-27.527
-0.034,0.851,-0.223,7.324,-18.982,-22.217

-0.021,1.764,-0.531,8.545,63.721,48.340
0.027,1.779,-0.524,3.113,69.397,48.767
0.060,1.797,-0.515,-1.282,75.195,50.354
0.195,1.805,-0.568,-5.676,76.050,51.575
0.186,1.759,-0.547,-10.315,83.496,50.110
0.105,1.703,-0.546,-10.376,98.267,50.232
0.044,1.662,-0.465,-7.629,113.770,51.819
-0.154,1.623,-0.446,-4.883,119.690,57.617
-0.415,1.643,-0.533,-4.150,111.816,68.726
-0.522,1.746,-0.604,-3.723,94.604,94.482
-0.663,1.765,-0.580,-5.066,74.280,111.938
-0.910,1.646,-0.576,-7.935,58.044,98.145
-0.956,1.724,-0.522,-7.935,54.260,108.032
-0.696,1.668,-0.562,-7.751,60.181,120.422
-0.636,1.640,-0.529,-10.742,71.655,117.004
-0.667,1.594,-0.496,-8.057,87.708,119.324
-0.574,1.450,-0.427,-5.432,96.008,119.446
-0.418,1.331,-0.318,-4.822,94.666,114.441
-0.278,1.238,-0.234,-3.784,84.229,108.276
-0.201,1.175,-0.151,-3.174,65.674,103.271
-0.122,1.095,-0.086,-1.526,43.945,99.304
-0.058,0.989,-0.046,-1.038,20.203,94.116
-0.036,0.897,-0.056,-0.610,-1.587,86.975
-0.012,0.824,-0.072,0.488,-20.569,77.881
0.035,0.703,-0.118,0.366,-37.842,68.054
0.024,0.636,-0.170,-3.479,-49.866,59.204
0.001,0.565,-0.182,-5.798,-52.795,48.828
0.001,0.517,-0.179,-6.531,-50.659,33.997
-0.026,0.450,-0.172,-7.202,-45.959,18.433
-0.027,0.410,-0.146,-7.263,-37.842,2.563
0.008,0.407,-0.128,-6.165,-29.053,-13.611
0.105,0.387,-0.101,-4.944,-26.733,-29.114
0.111,0.346,-0.064,-5.493,-29.114,-40.527
0.110,0.288,-0.049,-6.226,-32.898,-49.805
0.137,0.253,-0.047,-6.958,-37.781,-61.951
0.099,0.229,-0.072,-7.751,-42.297,-74.341
0.033,0.228,-0.087,-8.362,-43.030,-85.327
0.014,0.222,-0.100,-7.812,-42.114,-95.093
0.001,0.177,-0.089,-9.277,-40.283,-104.004
-0.005,0.172,-0.086,-11.597,-38.330,-112.732
-0.014,0.200,-0.021,-11.658,-35.339,-120.911
-0.023,0.205,0.033,-11.963,-34.424,-126.343
-0.036,0.191,0.084,-13.306,-36.743,-128.723
-0.006,0.202,0.159,-14.832,-47.607,-128.601
-0.040,0.214,0.163,-16.357,-62.744,-127.625
-0.132,0.233,0.136,-17.273,-76.294,-124.878
-0.242,0.216,0.099,-18.250,-87.341,-120.667
-0.356,0.207,0.082,-18.677,-97.046,-116.943
-0.504,0.206,0.010,-18.311,-104.980,-116.089
-0.707,0.229,-0.072,-18.127,-105.591,-116.516
-0.953,0.284,-0.138,-18.738,-96.252,-113.953
-1.136,0.349,-0.126,-18.311,-81.421,-105.774
-1.212,0.391,-0.021,-15.503,-67.932,-92.529
-1.250,0.391,0.062,-11.108,-61.279,-76.660
-1.313,0.351,0.095,-6.714,-57.617,-60.913
-1.338,0.298,0.062,-4.761,-54.688,-47.424
-1.328,0.235,0.013,-6.592,-52.185,-33.142
-1.255,0.200,-0.005,-9.338,-48.889,-17.761
-1.163,0.083,-0.019,-12.756,-47.424,-2.808
-1.163,-0.102,-0.120,-20.752,-51.514,10.132
-1.628,-0.223,-0.278,-32.532,-55.359,22.644
-3.172,0.164,-0.086,-32.837,-41.504,34.363
-3.694,1.651,0.432,10.742,-2.380,29.114
-2.074,2.132,0.505,28.748,20.813,2.136
0.226,2.677,0.537,31.494,17.212,-21.729
1.955,2.185,0.026,39.246,0.916,-25.330
1.011,1.393,-1.004,11.902,-11.963,0.916
-0.638,1.572,-1.294,-0.183,-16.113,46.448
-0.370,1.141,-0.860,21.057,-25.208,77.209
-0.636,0.552,-0.441,33.997,-32.471,68.359
-1.041,0.231,0.114,32.776,-24.048,54.626
-0.860,0.342,0.231,21.179,-11.841,30.762
-0.608,0.682,0.048,8.179,-0.732,-4.272
-0.465,0.902,-0.288,-1.648,7.141,-13.062
-0.356,0.990,-0.430,-3.479,13.000,-10.071
-0.374,0.958,-0.429,-1.160,15.808,-7.446
-0.396,1.008,-0.250,2.747,16.174,-5.310
-0.374,0.986,-0.135,1.892,14.221,-5.493
-0.354,0.929,-0.189,-1.282,8.240,-8.057
-0.336,0.878,-0.236,-5.920,2.014,-13.428
-0.445,0.864,-0.241,-8.911,-0.427,-17.151
-0.466,0.833,-0.252,-8.484,1.831,-17.395
-0.444,0.855,-0.261,-10.498,8.728,-21.729
-0.455,0.880,-0.302,-13.062,16.113,-26.978
-0.419,0.950,-0.278,-14.343,22.339,-29.968
-0.381,0.955,-0.260,-14.343,26.733,-35.095
-0.313,0.932,-0.273,-14.099,25.452,-38.818
-0.296,0.872,-0.329,-14.343,22.400,-43.030
-0.306,0.860,-0.385,-15.625,18.433,-49.194
-0.379,0.921,-0.369,-13.916,19.714,-51.697
-0.307,0.936,-0.380,-11.658,27.039,-56.335
-0.274,0.932,-0.337,-10.010,31.006,-60.120
-0.198,0.981,-0.344,-5.127,30.090,-57.983
-0.125,0.967,-0.342,-2.625,26.428,-55.725
-0.125,0.934,-0.323,-1.465,19.958,-54.138
-0.098,0.912,-0.316,-0.061,11.902,-51.147
-0.094,0.879,-0.318,-0.671,4.700,-47.791
-0.092,0.891,-0.313,-1.221,0.305,-45.105
-0.154,0.890,-0.261,-1.709,-0.488,-40.466
-0.138,0.883,-0.233,-1.221,-0.549,-36.133
-0.115,0.860,-0.232,-1.770,-3.723,-33.020
-0.084,0.866,-0.240,-2.075,-10.254,-28.687
-0.066,0.891,-0.291,-3.235,-14.099,-25.818
-0.071,0.920,-0.308,-5.188,-14.526,-23.437
-0.119,0.973,-0.360,-4.578,-14.343,-18.250
-0.138,0.993,-0.343,-2.808,-9.155,-12.451
-0.098,1.014,-0.318,-1.343,-1.038,-9.338
-0.133,1.033,-0.292,1.160,8.484,-5.127
-0.165,1.010,-0.247,3.174,18.372,-0.793
-0.112,0.977,-0.264,5.066,22.522,4.761
0.004,0.989,-0.283,7.202,19.653,9.888
-0.039,0.988,-0.340,5.615,14.160,8.850
-0.124,1.013,-0.389,6.592,12.695,10.742
-0.155,0.989,-0.376,8.606,14.709,13.977
-0.134,0.993,-0.351,9.827,18.982,15.442
-0.162,1.006,-0.333,9.949,23.682,16.663
-0.211,1.062,-0.276,11.353,27.832,17.334
-0.214,1.079,-0.264,13.245,30.334,17.883
-0.115,1.074,-0.296,14.893,29.053,18.066
-0.156,1.036,-0.353,14.954,25.513,17.700
-0.267,1.066,-0.357,15.747,25.757,17.456
-0.295,1.080,-0.362,16.541,30.090,16.968
-0.284,1.067,-0.296,16.846,37.354,16.602
-0.194,1.059,-0.238,16.174,41.382,17.517
-0.157,1.036,-0.185,12.817,39.978,17.029
-0.171,1.095,-0.161,9.399,37.170,15.381
-0.205,1.123,-0.166,6.104,36.133,14.587
-0.169,1.166,-0.164,3.601,37.170,14.160
-0.171,1.253,-0.174,2.014,38.513,13.306
-0.113,1.388,-0.210,4.089,38.818,13.489
-0.043,1.446,-0.355,5.432,36.865,15.503
-0.006,1.475,-0.446,5.310,34.729,18.982
-0.002,1.509,-0.504,4.639,36.560,23.010
-0.002,1.528,-0.499,5.493,44.250,26.978
0.049,1.524,-0.514,7.446,53.772,30.151
0.143,1.438,-0.498,7.812,56.396,32.043
0.212,1.434,-0.494,9.888,55.176,41.260
0.161,1.401,-0.470,8.728,53.040,40.710
0.032,1.420,-0.471,9.583,52.979,30.823
-0.081,1.449,-0.490,14.282,53.467,30.884
-0.240,1.513,-0.503,18.433,49.133,48.523
-0.358,1.570,-0.517,19.104,36.987,71.289
-0.465,1.620,-0.541,14.709,16.907,87.036
-0.755,1.722,-0.615,12.024,-4.211,102.112
-0.919,1.814,-0.621,11.902,-19.104,113.098
-0.896,1.850,-0.611,11.292,-20.996,121.277
-0.868,1.903,-0.641,15.869,-9.399,141.296
-0.782,1.873,-0.622,20.813,5.127,151.489
-0.733,1.764,-0.618,22.217,19.653,155.273
-0.687,1.721,-0.564,23.376,31.982,156.738
-0.664,1.646,-0.560,23.071,46.814,154.297
-0.613,1.575,-0.526,22.034,57.800,148.437
-0.518,1.517,-0.491,22.339,66.406,142.822
-0.360,1.431,-0.407,23.926,66.528,136.658
-0.176,1.330,-0.351,24.963,59.143,129.272
-0.035,1.176,-0.278,23.499,46.265,122.375
0.028,1.097,-0.213,21.118,32.959,113.098
0.067,1.031,-0.177,19.287,22.827,103.271
0.140,0.940,-0.118,18.738,15.930,93.567
0.210,0.846,-0.099,17.456,10.986,83.984
0.254,0.749,-0.074,16.907,7.263,74.341
0.284,0.651,-0.042,17.273,2.319,63.538
0.311,0.539,-0.032,15.381,-2.136,50.293
0.423,0.496,-0.014,13.794,-10.742,34.424
0.463,0.394,0.017,10.986,-21.545,19.653
0.463,0.303,0.036,7.568,-31.555,5.371
0.440,0.285,0.043,6.104,-40.405,-9.888
0.407,0.234,0.057,3.479,-47.913,-25.146
0.424,0.227,0.015,1.282,-55.298,-39.490
0.424,0.195,0.018,-0.549,-61.951,-52.551
0.387,0.149,-0.011,-3.235,-68.542,-63.171
0.323,0.072,-0.030,-6.775,-75.134,-72.205
0.227,0.036,-0.067,-10.376,-80.444,-84.106
0.130,0.039,-0.091,-12.756,-81.177,-98.999
0.011,0.114,-0.097,-13.855,-76.660,-115.295
-0.105,0.144,-0.100,-13.000,-68.481,-127.869
-0.130,0.097,-0.079,-13.367,-63.171,-135.803
-0.130,0.068,-0.034,-15.564,-61.340,-140.930
-0.172,0.077,0.061,-18.005,-61.584,-141.235
-0.243,0.133,0.151,-18.433,-67.078,-136.841
-0.395,0.129,0.172,-16.907,-80.505,-129.883
-0.605,0.086,0.088,-15.625,-92.896,-124.329
-0.811,0.040,-0.036,-16.724,-99.182,-116.943
-1.008,0.056,-0.163,-20.020,-99.060,-106.018
-1.254,0.099,-0.226,-20.996,-95.825,-91.125
-1.464,0.113,-0.250,-18.433,-91.797,-75.134
-1.583,0.095,-0.251,-16.785,-89.600,-60.242
-1.587,0.117,-0.221,-14.709,-83.862,-44.678
-1.537,0.096,-0.195,-11.108,-71.411,-28.137
-1.417,0.091,-0.144,-8.057,-60.364,-9.888
-1.317,-0.085,-0.180,-13.428,-53.345,4.456
-1.912,-0.584,-0.788,-35.828,-54.810,25.024
-2.974,-0.453,-0.505,-31.189,-45.715,55.054
-2.912,0.093,0.154,-3.357,-20.630,64.331
-1.897,0.733,0.666,11.597,9.399,25.146
-0.390,1.376,0.511,11.658,15.381,-22.339
0.178,2.096,0.220,16.968,10.376,-57.739
0.026,2.478,-0.179,15.198,7.324,-71.655
-0.491,2.657,-0.933,-5.310,-5.981,-44.922
-0.069,2.686,-1.076,5.493,-10.742,7.996
0.153,1.634,-0.863,21.545,-12.085,52.002
-0.484,0.827,-0.560,32.898,-10.254,67.627
-1.069,0.207,-0.166,45.227,-5.188,83.496
-0.997,-0.274,0.213,41.870,1.343,71.838
-0.492,-0.264,0.206,21.423,1.770,6.531
-0.388,0.380,-0.084,2.197,-7.141,-28.748
-0.553,0.821,-0.367,-14.038,-7.874,-45.044
-0.493,1.247,-0.399,-14.587,-3.357,-48.340
-0.383,1.431,-0.395,-9.827,1.953,-40.833
-0.368,1.392,-0.326,-3.052,6.714,-25.391
-0.377,1.231,-0.290,4.333,4.883,-15.564
-0.403,0.968,-0.248,5.249,-0.732,-16.968
-0.483,0.747,-0.238,0.977,-4.517,-23.193
-0.495,0.636,-0.265,-5.493,-4.639,-31.250
-0.416,0.689,-0.206,-13.672,-2.258,-38.940
-0.415,0.819,-0.236,-19.165,0.061,-43.335
-0.422,1.063,-0.289,-14.404,2.563,-44.006
-0.434,1.058,-0.321,-11.536,8.545,-45.532
-0.393,1.039,-0.336,-10.803,10.925,-46.448
-0.344,1.033,-0.359,-7.385,11.780,-43.762
-0.383,0.948,-0.361,-10.193,26.123,-52.246
-0.385,0.928,-0.307,-11.353,36.072,-63.171
-0.279,0.995,-0.262,-6.470,34.912,-59.875
-0.223,0.941,-0.305,-4.150,31.921,-55.054
-0.229,0.898,-0.289,-5.066,29.541,-56.580
-0.250,0.865,-0.317,-6.409,25.574,-57.373
-0.247,0.895,-0.295,-5.493,24.353,-55.664
-0.154,0.885,-0.300,-5.859,24.048,-54.565
-0.141,0.913,-0.303,-7.385,21.423,-53.528
-0.129,0.927,-0.320,-7.263,18.616,-50.171
-0.161,0.931,-0.319,-4.883,16.541,-44.556
-0.142,0.887,-0.309,-2.747,16.052,-38.513
-0.132,0.826,-0.295,-2.319,16.235,-33.203
-0.107,0.791,-0.273,-3.418,15.320,-29.602
-0.066,0.805,-0.245,-4.883,12.390,-26.855
-0.060,0.833,-0.267,-6.042,6.653,-24.170
-0.110,0.876,-0.267,-4.700,3.723,-19.653
-0.154,0.851,-0.267,-2.991,2.625,-16.296

-0.711,1.533,-0.595,7.019,44.922,111.206
-1.069,1.572,-0.523,7.629,35.156,109.802
-0.868,1.665,-0.583,7.385,31.799,117.065
-0.546,1.682,-0.573,5.066,33.020,114.014
-0.549,1.608,-0.549,6.714,43.823,110.718
-0.585,1.449,-0.473,11.169,58.350,111.755
-0.542,1.285,-0.388,12.878,69.397,107.300
-0.418,1.206,-0.296,15.015,72.693,98.450
-0.272,1.123,-0.188,15.198,65.430,91.553
-0.178,1.059,-0.095,14.954,51.636,85.266
-0.131,0.976,-0.037,15.015,35.645,78.674
-0.080,0.879,-0.016,13.611,18.372,72.388
-0.025,0.787,-0.011,12.512,1.648,65.247
0.043,0.685,-0.005,11.414,-15.869,56.641
0.014,0.632,-0.017,8.606,-29.663,46.570
-0.034,0.540,-0.035,5.859,-36.560,37.781
0.063,0.502,-0.022,4.333,-44.495,25.513
0.126,0.429,-0.026,2.319,-51.208,10.864
0.152,0.396,-0.029,0.916,-55.054,-2.930
0.127,0.357,-0.017,0.366,-56.763,-13.977
0.105,0.343,-0.001,-0.427,-58.289,-25.269
0.093,0.368,-0.023,0.732,-59.753,-38.330
0.087,0.283,-0.040,-0.427,-61.646,-49.988
0.065,0.255,-0.046,-3.235,-61.096,-61.890
0.039,0.234,-0.042,-5.554,-57.678,-74.707
0.042,0.267,0.017,-7.019,-55.298,-86.975
-0.000,0.304,0.041,-6.592,-54.443,-98.389
-0.001,0.278,0.033,-5.676,-55.054,-107.483
0.000,0.265,0.032,-6.165,-56.763,-116.394
-0.059,0.266,0.012,-7.324,-56.519,-124.329
-0.099,0.292,0.015,-7.996,-57.068,-130.554
-0.145,0.287,0.002,-8.850,-58.533,-135.437
-0.194,0.283,0.003,-9.827,-59.937,-138.611
-0.298,0.292,0.011,-10.376,-60.120,-139.648
-0.412,0.298,0.033,-10.071,-58.838,-138.733
-0.470,0.289,0.062,-10.498,-60.242,-136.780
-0.572,0.357,0.077,-11.230,-64.209,-132.751
-0.713,0.395,0.062,-10.742,-67.993,-125.183
-0.826,0.422,0.062,-11.658,-70.435,-113.770
-0.944,0.450,0.038,-11.719,-71.899,-99.548
-1.112,0.410,0.026,-10.132,-71.167,-85.388
-1.252,0.365,-0.015,-9.033,-68.970,-74.402
-1.373,0.313,-0.081,-9.583,-62.744,-64.209
-1.393,0.323,-0.118,-10.559,-56.824,-52.246
-1.444,0.322,-0.120,-9.644,-45.044,-38.147
-1.388,0.295,-0.112,-7.935,-34.729,-23.010
-1.271,0.199,-0.114,-9.094,-29.663,-6.287
-1.290,0.153,-0.174,-12.146,-27.222,8.667
-1.511,0.042,-0.258,-19.348,-26.978,24.170
-2.226,0.048,-0.306,-27.771,-25.269,42.114
-3.019,0.698,-0.043,-12.451,-9.521,57.861
-1.913,1.172,0.295,9.888,7.446,44.556
-0.547,1.331,0.378,9.705,14.038,21.729
0.338,1.566,0.508,25.574,23.315,9.094
0.957,1.452,0.375,39.246,24.170,-3.906
0.207,1.242,-0.216,16.113,6.226,-8.667
-1.076,1.717,-0.797,-3.906,-21.118,14.709
-0.344,1.501,-0.902,2.258,-42.664,43.335
-0.093,0.922,-0.816,3.784,-48.340,42.053
-0.524,0.714,-0.482,7.324,-32.959,36.621
-0.849,0.681,-0.084,7.385,-15.625,35.278
-0.703,0.723,0.079,4.395,-2.930,18.005
-0.613,0.718,-0.007,-1.587,6.653,-0.793
-0.514,0.721,-0.187,-8.362,13.184,-9.399
-0.438,0.769,-0.297,-12.146,12.146,-17.700
-0.384,0.879,-0.289,-13.672,7.690,-21.912
-0.343,0.962,-0.262,-13.184,3.052,-23.193
-0.345,1.012,-0.234,-13.733,-1.465,-22.827
-0.335,1.004,-0.239,-14.587,-4.944,-22.888
-0.360,0.932,-0.287,-16.541,-5.920,-25.146
-0.421,0.904,-0.296,-17.822,-3.235,-28.015
-0.426,0.813,-0.264,-18.616,2.075,-31.372
-0.404,0.818,-0.264,-21.484,5.981,-36.621
-0.395,0.858,-0.236,-23.254,9.705,-41.016
-0.344,0.918,-0.253,-24.475,12.268,-43.701
-0.328,0.958,-0.284,-23.193,14.221,-47.241
-0.342,0.932,-0.292,-24.292,12.939,-50.232
-0.298,0.974,-0.316,-20.996,8.057,-47.729
-0.321,0.926,-0.319,-19.043,11.475,-49.316
-0.310,0.913,-0.384,-20.691,26.062,-59.082
-0.342,0.945,-0.365,-20.081,36.011,-66.162
-0.294,0.976,-0.339,-17.761,38.147,-68.115
-0.142,0.971,-0.339,-13.977,32.227,-64.636
-0.040,0.980,-0.315,-9.277,20.264,-58.350
-0.071,0.975,-0.385,-8.240,12.146,-55.176
-0.141,0.982,-0.386,-7.751,11.047,-55.359
-0.125,0.986,-0.364,-5.310,14.526,-56.091
-0.079,0.948,-0.325,-4.822,19.226,-55.237
-0.041,0.965,-0.308,-4.028,20.020,-52.063
0.001,0.981,-0.304,-2.441,14.832,-45.776
0.037,0.958,-0.313,-0.427,6.592,-38.635
-0.010,0.880,-0.357,-0.854,-0.854,-33.264
-0.108,0.839,-0.294,-1.099,-4.395,-29.358
-0.088,0.813,-0.247,-0.671,-5.737,-26.611
-0.038,0.823,-0.263,-2.319,-7.812,-23.682
-0.033,0.906,-0.289,-2.808,-8.423,-21.301
-0.105,0.952,-0.349,-3.052,-3.723,-18.433
-0.144,0.989,-0.349,-1.465,5.981,-15.320
-0.103,0.999,-0.347,1.221,15.076,-11.841
-0.046,0.974,-0.318,3.723,19.226,-9.277
0.018,0.896,-0.300,3.601,19.165,-5.127
0.059,0.885,-0.277,3.784,15.747,-0.916
0.044,0.887,-0.312,1.709,12.085,2.502
-0.001,0.986,-0.240,0.732,10.132,5.432
-0.016,1.077,-0.246,3.845,7.629,9.583
-0.045,1.050,-0.320,5.798,6.897,13.794
-0.072,1.011,-0.304,6.958,6.470,16.968
-0.129,1.016,-0.328,7.629,6.226,19.104
-0.096,1.085,-0.327,9.460,8.057,19.165
-0.096,1.144,-0.375,10.071,12.451,18.555
-0.136,1.187,-0.393,11.780,19.470,18.433
-0.124,1.223,-0.344,13.794,27.100,17.517
-0.207,1.212,-0.366,13.672,34.790,15.503
-0.204,1.217,-0.297,15.137,43.701,13.184
-0.162,1.139,-0.271,15.259,49.072,10.864
-0.166,1.171,-0.219,14.526,50.171,10.193
-0.135,1.250,-0.199,14.526,49.866,10.559
-0.050,1.295,-0.186,14.893,49.072,11.169
0.051,1.258,-0.231,13.123,46.936,13.611
0.030,1.227,-0.285,9.766,44.373,15.930
-0.012,1.306,-0.239,9.766,44.250,16.968
-0.021,1.371,-0.291,8.789,46.143,14.343
0.068,1.484,-0.303,9.705,43.396,14.221
0.105,1.587,-0.393,12.146,42.603,18.066
0.173,1.600,-0.412,14.587,43.640,11.841
0.249,1.600,-0.427,19.226,47.607,9.094
0.266,1.552,-0.438,24.780,54.321,20.325
0.338,1.447,-0.465,28.015,53.711,34.668
0.355,1.351,-0.495,28.015,47.485,43.884
0.312,1.273,-0.500,26.062,37.170,50.781
0.247,1.247,-0.537,22.949,26.184,56.641
0.190,1.225,-0.563,18.799,13.855,60.303
0.096,1.241,-0.614,15.747,2.502,58.289
0.014,1.325,-0.483,15.991,-3.174,55.298
-0.286,1.286,-0.508,15.137,-8.606,61.279
-0.428,1.334,-0.532,15.381,-23.132,71.228
-0.684,1.410,-0.553,12.756,-40.039,79.163
-1.070,1.570,-0.615,11.902,-47.791,96.619
-1.218,1.671,-0.658,15.198,-41.504,116.211
-1.099,1.650,-0.603,16.724,-26.489,129.944
-0.866,1.628,-0.611,18.066,-9.827,139.099
-0.693,1.532,-0.590,17.883,7.629,144.165
-0.640,1.431,-0.574,20.081,34.302,141.541
-0.570,1.345,-0.561,19.836,61.340,134.033
-0.482,1.300,-0.519,21.973,84.167,125.671
-0.374,1.253,-0.451,25.330,97.778,117.615
-0.266,1.193,-0.361,27.893,101.318,111.572
-0.177,1.123,-0.291,30.090,94.360,108.154
-0.072,1.027,-0.245,30.273,79.895,105.713
0.010,0.934,-0.209,28.198,61.279,101.868
0.072,0.853,-0.184,25.757,42.908,97.412
0.118,0.770,-0.156,23.743,27.222,92.102
0.097,0.684,-0.132,20.386,15.442,85.815
0.075,0.660,-0.119,18.066,7.996,78.552
0.068,0.637,-0.117,15.991,2.075,71.350
0.082,0.545,-0.098,14.099,-3.845,63.660
0.141,0.525,-0.090,11.353,-10.071,51.514
0.167,0.495,-0.080,8.972,-17.273,37.964
0.150,0.394,-0.058,6.958,-23.804,28.137
0.146,0.367,-0.056,4.822,-31.189,18.738
0.161,0.312,-0.045,2.380,-36.865,8.789
0.192,0.273,-0.027,-2.625,-44.312,-1.648
0.201,0.313,-0.026,-6.042,-52.368,-12.878
0.165,0.324,-0.028,-9.155,-60.852,-23.499
0.083,0.325,-0.047,-11.230,-67.627,-33.142
0.051,0.302,-0.085,-12.756,-73.792,-42.114
0.057,0.274,-0.116,-16.296,-80.139,-52.490
0.015,0.323,-0.141,-21.057,-84.778,-64.392
-0.049,0.398,-0.167,-25.085,-85.571,-74.524
-0.062,0.413,-0.202,-27.405,-85.754,-83.313
-0.122,0.385,-0.214,-28.992,-83.618,-91.980
-0.169,0.325,-0.204,-29.480,-79.163,-100.037
-0.202,0.281,-0.144,-28.931,-73.547,-106.750
-0.152,0.225,-0.174,-30.945,-71.045,-111.816
-0.207,0.230,-0.166,-34.668,-68.665,-117.188
-0.328,0.276,-0.102,-34.851,-63.416,-121.887
-0.440,0.286,-0.040,-32.898,-58.777,-125.305
-0.469,0.300,0.000,-31.921,-57.129,-127.441
-0.523,0.303,0.030,-32.166,-59.509,-127.747
-0.693,0.337,0.002,-31.250,-60.974,-126.709
-0.844,0.364,-0.018,-29.175,-60.486,-122.559
-0.958,0.388,0.004,-27.893,-58.716,-113.708
-1.083,0.413,0.039,-25.085,-55.542,-101.746
-1.180,0.430,0.079,-20.386,-52.002,-87.524
-1.218,0.416,0.124,-15.869,-49.988,-70.435
-1.233,0.375,0.148,-12.207,-49.866,-52.795
-1.204,0.310,0.168,-8.911,-51.636,-35.950
-1.134,0.186,0.128,-8.667,-55.237,-20.630
-1.180,-0.002,-0.030,-14.709,-62.256,-7.080
-1.666,-0.192,-0.371,-29.724,-70.923,7.202
-3.048,0.012,-0.391,-38.391,-67.993,32.104
-3.469,1.424,-0.052,-2.502,-49.744,28.564
-2.010,1.785,-0.028,11.597,-20.020,-0.793
-0.169,2.357,0.181,20.630,-0.122,-16.052
1.390,2.123,0.143,41.199,9.399,-25.452
1.741,1.632,-0.719,21.973,5.920,-25.452
0.210,1.888,-1.409,-11.414,4.578,1.526
-0.243,2.075,-0.980,10.315,5.188,49.072
-0.368,0.932,-0.421,28.687,-3.967,74.097
-1.024,0.416,-0.048,38.818,-11.597,72.266
-1.041,0.220,0.197,36.621,-9.460,62.378
-0.724,0.224,0.035,20.264,-8.179,24.414
-0.454,0.571,-0.242,5.127,-8.423,-12.512
-0.326,0.877,-0.389,-1.587,-3.723,-19.775
-0.328,1.028,-0.433,-1.099,0.000,-18.066
-0.367,1.105,-0.340,3.479,3.784,-14.465
-0.372,1.093,-0.268,7.202,6.104,-10.559
-0.328,0.998,-0.261,8.179,3.906,-10.010
-0.290,0.918,-0.246,6.714,0.854,-13.550
-0.339,0.806,-0.287,1.770,-1.953,-18.372
-0.402,0.794,-0.234,-2.808,-2.502,-21.790
-0.322,0.789,-0.245,-7.263,-2.197,-27.405
-0.344,0.893,-0.248,-10.010,-1.953,-30.212
-0.341,0.918,-0.277,-8.972,-3.784,-30.884
-0.312,0.950,-0.245,-9.521,-4.761,-32.898
-0.302,0.945,-0.300,-9.277,-4.272,-36.377
-0.339,0.927,-0.329,-7.568,-3.174,-35.950
-0.353,0.839,-0.326,-6.958,-1.282,-37.231
-0.325,0.887,-0.282,-7.812,0.854,-39.856
-0.305,0.905,-0.314,-8.545,6.836,-43.945
-0.304,0.941,-0.326,-8.484,14.404,-47.852
-0.227,0.904,-0.323,-8.606,18.250,-52.307
-0.203,0.901,-0.334,-12.024,15.808,-56.335
-0.189,0.929,-0.329,-11.902,9.583,-57.922
-0.203,0.977,-0.312,-7.812,3.357,-54.504
-0.159,0.928,-0.350,-3.967,0.183,-51.697
-0.164,0.938,-0.353,-1.343,-0.305,-49.744
-0.129,0.917,-0.349,1.038,2.380,-48.218
-0.114,0.920,-0.329,0.916,7.629,-46.387
-0.065,0.921,-0.318,0.916,11.047,-44.250
-0.043,0.933,-0.289,0.427,11.353,-39.734
0.011,0.924,-0.264,0.122,8.911,-34.119
0.030,0.895,-0.293,-2.502,5.432,-28.503
0.050,0.919,-0.298,-4.028,2.563,-23.376
0.017,0.935,-0.306,-4.639,-0.549,-17.822
0.008,0.962,-0.330,-4.395,-3.296,-13.123
-0.059,0.983,-0.349,-3.601,-3.296,-9.033
-0.100,0.976,-0.348,-1.526,-0.305,-5.249

-0.214,1.438,-0.450,26.245,17.029,44.678
-0.154,1.453,-0.457,25.146,25.269,45.349
-0.111,1.442,-0.446,24.231,33.875,46.814
-0.035,1.413,-0.458,22.705,39.917,48.584
0.035,1.444,-0.460,21.118,45.227,50.659
0.095,1.497,-0.499,20.935,48.584,51.025
0.109,1.480,-0.532,21.667,53.528,52.002
0.063,1.431,-0.541,23.132,59.937,56.641
-0.018,1.358,-0.540,23.132,66.467,62.683
-0.104,1.306,-0.588,20.874,70.435,68.237
-0.080,1.276,-0.649,14.282,68.604,72.083
-0.106,1.351,-0.674,7.446,56.885,70.557
-0.198,1.421,-0.678,2.563,45.593,69.031
-0.313,1.365,-0.736,-1.343,38.818,74.097
-0.302,1.293,-0.767,-4.211,33.081,83.740
-0.350,1.210,-0.712,-7.141,29.663,89.172
-0.611,1.224,-0.718,-7.019,27.771,89.172
-0.809,1.267,-0.646,-8.301,30.457,89.417
-0.806,1.331,-0.737,-13.550,39.490,85.876
-0.633,1.448,-0.691,-14.832,56.702,75.439
-0.525,1.376,-0.624,-12.573,79.834,66.284
-0.531,1.286,-0.583,-6.348,111.572,58.105
-0.419,1.153,-0.489,-1.831,133.301,48.279
-0.333,1.120,-0.398,0.305,140.808,39.429
-0.241,1.154,-0.301,2.869,132.019,33.997
-0.178,1.232,-0.180,4.395,112.793,30.396
-0.155,1.260,-0.061,3.357,85.022,28.625
-0.116,1.276,-0.012,2.563,50.232,28.748
-0.064,1.260,0.011,2.380,12.573,27.466
-0.069,1.182,0.058,0.549,-22.888,25.391
-0.173,1.110,0.076,-2.930,-51.208,23.499
-0.256,1.039,0.101,-6.470,-69.275,19.165
-0.232,1.001,0.125,-7.141,-83.557,14.221
-0.141,0.921,0.107,-5.981,-99.731,11.169
-0.086,0.836,0.032,-8.423,-114.136,6.958
-0.186,0.848,0.007,-9.460,-115.356,2.136
-0.232,0.728,0.002,-6.775,-112.183,-1.831
-0.132,0.632,0.029,-4.456,-112.671,-11.292
-0.058,0.496,0.042,-4.883,-113.464,-23.987
-0.084,0.375,0.049,-7.568,-110.352,-36.255
-0.049,0.370,0.055,-8.179,-105.225,-48.950
0.020,0.342,0.041,-9.216,-100.281,-59.692
0.018,0.289,0.058,-8.789,-96.558,-70.374
-0.032,0.221,0.053,-8.728,-92.896,-81.116
-0.010,0.182,0.085,-8.667,-92.529,-92.468
0.010,0.157,0.126,-9.094,-96.558,-102.966
-0.038,0.150,0.135,-10.498,-104.370,-111.023
-0.071,0.185,0.142,-10.681,-114.868,-115.295
-0.154,0.165,0.152,-10.376,-127.502,-115.906
-0.319,0.149,0.078,-8.972,-139.343,-116.272
-0.626,0.070,-0.033,-7.446,-141.418,-117.310
-0.932,0.002,-0.118,-8.423,-128.174,-116.638
-1.225,-0.048,-0.167,-9.094,-107.178,-111.755
-1.483,-0.070,-0.105,-6.775,-85.205,-101.929
-1.584,-0.133,0.031,-3.906,-69.275,-89.417
-1.683,-0.135,0.085,-0.122,-50.354,-77.759
-1.683,-0.068,0.169,5.432,-35.095,-64.880
-1.604,-0.048,0.218,8.972,-29.053,-44.006
-1.554,-0.028,0.240,12.146,-28.809,-22.949
-1.556,-0.092,0.221,12.268,-34.119,-4.761
-1.856,-0.296,-0.045,2.075,-46.387,15.442
-2.877,-0.403,-0.196,-8.545,-57.373,50.293
-3.664,0.020,0.135,8.118,-54.932,91.797
-2.390,0.261,0.271,25.635,-47.241,100.403
-0.791,0.469,0.433,20.020,-44.067,71.594
0.332,0.741,0.174,27.466,-42.053,41.382
1.249,0.779,-0.007,41.443,-27.222,9.399
0.753,0.587,-0.563,26.978,-13.611,-34.302
-1.750,0.750,-1.533,-23.437,-24.841,-36.499
-1.753,2.340,-1.267,1.465,-41.077,-9.216
0.037,1.984,-0.554,22.095,-18.005,-16.785
-0.072,1.674,0.049,13.489,22.644,-17.456
-0.901,1.739,0.148,26.978,41.382,12.451
-0.723,1.318,0.276,33.875,42.664,31.860
-0.331,0.839,0.066,22.522,22.278,23.376
-0.217,0.503,-0.171,8.179,-0.916,12.390
-0.415,0.388,-0.343,-9.155,-14.587,-0.916
-0.582,0.619,-0.379,-17.517,-18.066,-11.780
-0.472,0.835,-0.324,-22.034,-12.634,-17.761
-0.512,0.974,-0.268,-25.330,-4.150,-20.142
-0.573,1.086,-0.209,-25.574,5.005,-19.714
-0.581,1.033,-0.200,-27.039,12.451,-21.423
-0.491,0.937,-0.251,-31.189,17.639,-26.794
-0.429,0.916,-0.331,-37.659,20.935,-31.921
-0.401,0.971,-0.377,-39.307,23.132,-34.607
-0.429,1.027,-0.404,-37.720,25.879,-36.621
-0.460,1.048,-0.361,-34.119,28.076,-38.025
-0.428,1.082,-0.329,-29.663,32.593,-41.687
-0.349,1.078,-0.328,-25.452,40.161,-47.485
-0.422,1.110,-0.370,-21.362,45.898,-51.758
-0.392,1.100,-0.364,-16.907,50.781,-57.556
-0.227,1.063,-0.355,-14.648,48.279,-62.622
-0.204,1.046,-0.345,-11.658,41.565,-59.631
-0.263,0.962,-0.294,-9.949,39.917,-57.556
-0.246,0.877,-0.272,-10.559,40.283,-64.514
-0.220,0.855,-0.267,-8.972,39.185,-70.129
-0.175,0.895,-0.281,-6.226,38.208,-60.486
-0.139,0.937,-0.271,-2.869,34.607,-44.373
-0.143,0.929,-0.262,-2.197,26.062,-35.767
-0.138,0.886,-0.264,-4.456,19.348,-32.959
-0.144,0.820,-0.268,-6.897,16.541,-31.921
-0.180,0.779,-0.233,-7.263,17.639,-29.541
-0.202,0.751,-0.231,-6.531,19.348,-26.978
-0.201,0.760,-0.264,-4.883,19.897,-23.682
-0.168,0.755,-0.269,-2.136,19.714,-18.982
-0.126,0.729,-0.277,-0.488,17.212,-13.184
-0.144,0.735,-0.288,2.075,13.000,-8.240
-0.165,0.720,-0.311,2.380,8.789,-4.944
-0.173,0.669,-0.379,1.282,4.395,-2.441
-0.151,0.681,-0.403,0.061,0.793,0.366
-0.173,0.717,-0.423,-1.282,0.122,2.197
-0.181,0.793,-0.396,-1.038,2.441,4.272
-0.177,0.865,-0.364,0.305,6.470,6.775
-0.198,0.880,-0.336,2.563,10.559,8.728
-0.221,0.905,-0.312,3.357,13.062,9.766
-0.240,0.955,-0.280,4.700,13.672,11.597
-0.146,0.992,-0.253,6.042,12.207,12.634
-0.174,1.029,-0.284,5.737,8.484,13.794
-0.251,1.098,-0.299,6.409,7.629,15.259
-0.264,1.163,-0.327,7.935,11.414,15.259
-0.218,1.230,-0.247,11.230,17.151,15.381
-0.178,1.246,-0.264,12.146,19.470,16.785
-0.243,1.261,-0.294,12.268,21.667,17.883
-0.297,1.283,-0.278,13.367,27.405,17.151
-0.305,1.271,-0.265,12.573,35.278,15.137
-0.261,1.297,-0.245,11.414,42.786,13.000
-0.206,1.356,-0.238,10.132,49.072,11.780
-0.156,1.448,-0.206,10.071,54.443,11.353
-0.099,1.541,-0.215,10.742,58.777,10.925
-0.037,1.597,-0.261,11.414,61.462,10.498
0.020,1.638,-0.302,12.268,62.866,10.925
0.087,1.670,-0.320,12.939,64.270,13.245
0.139,1.749,-0.335,14.709,68.054,18.372
0.214,1.759,-0.378,17.639,72.083,25.757
0.332,1.710,-0.401,22.400,70.984,36.926
0.374,1.614,-0.403,26.611,62.744,49.377
0.335,1.556,-0.448,28.687,46.814,58.044
0.247,1.600,-0.463,31.799,25.391,65.552
0.216,1.556,-0.542,32.776,-4.395,58.411
0.054,1.587,-0.461,32.959,-29.846,60.364
-0.277,1.578,-0.562,27.527,-62.317,80.017
-0.681,1.647,-0.749,19.409,-91.736,87.952
-0.978,1.690,-0.835,15.625,-105.286,104.980
-0.943,1.875,-0.813,16.418,-114.929,133.240
-0.899,1.901,-0.889,15.869,-110.901,163.147
-0.846,1.912,-0.906,15.564,-91.064,173.828
-0.826,1.804,-0.920,13.123,-61.523,171.631
-0.914,1.730,-0.902,16.235,-20.569,163.635
-0.821,1.514,-0.885,15.808,12.817,156.311
-0.615,1.342,-0.808,15.381,42.114,145.935
-0.439,1.221,-0.650,21.729,64.087,131.165
-0.300,1.192,-0.483,27.649,70.313,118.469
-0.116,1.135,-0.386,32.959,67.749,108.582
0.095,1.032,-0.309,35.400,55.664,96.558
0.244,0.933,-0.257,34.729,38.025,84.229
0.220,0.807,-0.196,34.241,26.855,70.679
0.224,0.653,-0.150,33.325,23.437,55.359
0.218,0.548,-0.096,32.227,21.606,39.368
0.275,0.472,-0.099,32.104,16.785,25.024
0.363,0.369,-0.074,29.846,7.996,13.123
0.339,0.225,-0.023,25.208,-2.441,2.380
0.327,0.198,0.003,22.278,-16.174,-9.521
0.338,0.154,0.002,18.555,-30.457,-22.888
0.339,0.127,0.001,12.512,-44.556,-36.682
0.309,0.163,-0.015,6.226,-58.167,-50.476
0.242,0.161,-0.061,0.977,-67.810,-63.538
0.197,0.146,-0.098,-2.747,-73.425,-74.280
0.156,0.094,-0.110,-6.348,-75.317,-83.496
0.084,0.025,-0.128,-10.193,-74.829,-91.736
0.041,-0.046,-0.171,-14.832,-73.792,-100.342
-0.018,-0.046,-0.212,-18.799,-70.374,-111.938
-0.132,-0.022,-0.260,-21.912,-62.805,-124.756
-0.219,0.024,-0.286,-23.682,-53.467,-136.292
-0.252,0.034,-0.260,-25.391,-44.434,-144.897
-0.289,0.047,-0.206,-27.039,-37.537,-150.513
-0.419,0.049,-0.138,-28.931,-31.860,-153.259
-0.524,0.115,-0.064,-29.968,-28.198,-152.710
-0.602,0.182,0.010,-30.029,-27.771,-146.729
-0.687,0.241,0.059,-30.212,-30.518,-135.864
-0.843,0.271,0.064,-29.602,-36.255,-122.192
-1.060,0.275,0.010,-29.358,-42.358,-108.276
-1.315,0.296,-0.041,-27.771,-42.358,-97.412
-1.450,0.350,-0.025,-24.292,-37.659,-85.510
-1.490,0.395,0.013,-20.874,-32.471,-69.702
-1.495,0.450,0.069,-16.113,-28.503,-50.293
-1.464,0.452,0.125,-10.315,-25.391,-28.748
-1.375,0.417,0.146,-5.188,-23.865,-7.874
-1.284,0.333,0.148,-4.028,-26.489,9.766
-1.385,0.163,-0.073,-10.559,-32.043,25.146
-1.825,-0.019,-0.437,-21.057,-36.316,42.908
-2.184,0.158,-0.165,-14.221,-29.480,62.805
-1.848,0.516,0.373,8.728,-13.916,58.960
-0.809,0.690,0.376,13.916,-7.080,21.423
-0.332,1.350,0.371,14.221,-7.019,-8.301
-0.059,1.982,0.065,21.179,-15.686,-28.992
-0.053,2.283,-0.510,13.916,-26.062,-35.339
-0.008,2.405,-0.782,3.906,-32.776,-13.245
-0.016,1.919,-0.957,2.563,-37.170,36.011
-0.376,1.251,-0.835,15.625,-37.109,66.101
-0.680,0.662,-0.465,27.283,-30.701,73.792
-0.865,0.237,-0.104,29.968,-15.564,69.092
-0.898,0.103,0.153,25.146,-0.427,39.917
-0.716,0.308,0.193,10.803,9.888,-3.296
-0.510,0.725,0.011,-5.005,13.672,-27.893
-0.409,0.997,-0.267,-14.038,9.460,-34.790
-0.305,1.163,-0.376,-13.428,3.906,-30.457
-0.297,1.149,-0.353,-10.559,1.038,-19.165
-0.296,1.125,-0.236,-8.057,-0.305,-12.207
-0.317,1.033,-0.172,-8.423,-1.526,-10.925
-0.363,0.913,-0.211,-10.803,-2.991,-12.329
-0.421,0.811,-0.258,-15.076,-2.441,-16.785
-0.419,0.781,-0.282,-20.020,1.038,-22.949
-0.392,0.813,-0.264,-23.071,5.188,-27.954
-0.401,0.851,-0.269,-23.437,8.789,-30.640
-0.418,0.913,-0.296,-21.179,10.132,-32.654
-0.345,0.908,-0.285,-17.639,9.583,-35.400
-0.353,0.920,-0.301,-18.982,8.423,-39.246
-0.378,0.996,-0.281,-16.846,8.667,-42.053
-0.426,0.981,-0.308,-13.062,11.108,-43.152
-0.406,0.956,-0.382,-10.620,15.625,-45.898
-0.304,0.954,-0.387,-9.521,19.775,-50.781
-0.207,0.957,-0.393,-6.409,24.475,-52.124
-0.302,0.888,-0.406,-6.958,28.137,-56.580
-0.417,0.890,-0.347,-6.714,28.992,-62.500
-0.327,0.921,-0.297,-8.484,29.907,-70.374
-0.185,0.956,-0.331,-12.878,28.381,-76.660
-0.133,1.047,-0.341,-14.282,26.184,-73.486
-0.062,1.107,-0.368,-10.071,24.780,-66.406
-0.119,1.091,-0.396,-5.371,25.452,-60.669
-0.090,1.037,-0.374,1.099,25.940,-56.274
-0.077,0.936,-0.292,3.845,26.489,-53.650
-0.143,0.868,-0.302,2.258,26.245,-51.697
-0.144,0.900,-0.262,-0.427,27.222,-48.584
-0.053,0.993,-0.251,-2.258,28.870,-46.509
-0.057,1.077,-0.249,-2.319,30.090,-43.945
-0.076,1.145,-0.238,1.038,32.104,-38.940
-0.058,1.116,-0.248,5.554,34.668,-32.715
-0.057,0.990,-0.284,9.949,36.072,-26.306

-0.126,1.526,-0.359,20.996,29.297,45.349
-0.107,1.562,-0.354,19.348,32.959,49.194
-0.024,1.579,-0.357,17.212,34.729,51.147
-0.006,1.553,-0.377,14.832,37.048,52.124
0.039,1.546,-0.435,12.573,41.260,52.917
0.063,1.547,-0.502,9.521,47.302,52.368
0.083,1.541,-0.574,6.714,55.420,51.575
-0.021,1.537,-0.598,4.517,66.406,50.232
-0.066,1.602,-0.590,4.517,78.552,49.377
-0.143,1.611,-0.610,5.371,86.731,49.683
-0.182,1.679,-0.609,7.141,90.210,51.880
-0.299,1.708,-0.773,10.498,86.731,60.974
-0.237,1.681,-0.617,13.489,79.834,84.656
-0.390,1.660,-0.575,14.771,56.335,110.596
-0.917,1.653,-0.580,12.451,33.936,127.441
-1.332,1.818,-0.372,11.230,20.996,131.836
-1.189,1.849,-0.444,6.897,9.155,125.854
-0.842,1.962,-0.532,4.028,5.249,140.442
-0.745,1.855,-0.570,2.014,12.817,140.808
-0.734,1.682,-0.550,5.249,30.701,141.235
-0.597,1.451,-0.499,8.057,42.297,144.226
-0.453,1.304,-0.427,6.592,47.974,140.320
-0.327,1.178,-0.342,6.042,51.025,132.080
-0.221,1.085,-0.243,6.348,47.485,122.986
-0.128,0.995,-0.162,6.775,41.992,111.084
0.025,0.869,-0.090,8.362,31.250,97.961
0.195,0.806,-0.068,9.766,16.174,84.961
0.237,0.614,-0.064,7.141,1.526,73.486
0.294,0.491,-0.068,1.282,-11.719,59.204
0.274,0.419,-0.077,-2.014,-24.780,41.077
0.222,0.328,-0.058,-4.578,-34.119,24.841
0.245,0.299,-0.060,-7.690,-39.551,8.850
0.353,0.274,-0.077,-9.094,-46.936,-10.315
0.364,0.271,-0.051,-10.437,-52.429,-30.701
0.307,0.259,-0.022,-12.878,-55.664,-46.509
0.264,0.273,0.009,-14.221,-58.594,-59.570
0.281,0.247,0.015,-15.320,-64.331,-72.510
0.299,0.218,0.022,-16.785,-72.754,-85.571
0.288,0.201,0.023,-17.883,-82.214,-98.511
0.235,0.181,0.003,-18.066,-92.041,-111.389
0.093,0.194,-0.050,-18.250,-96.191,-123.230
0.053,0.167,-0.124,-20.386,-97.290,-131.104
-0.019,0.151,-0.171,-24.048,-95.825,-138.184
-0.170,0.139,-0.190,-26.794,-86.365,-145.020
-0.261,0.156,-0.131,-28.076,-74.768,-151.794
-0.268,0.173,-0.108,-29.297,-66.772,-157.959
-0.360,0.217,-0.040,-31.433,-59.448,-161.438
-0.411,0.294,0.058,-31.250,-54.626,-159.973
-0.441,0.320,0.119,-30.396,-56.396,-152.832
-0.567,0.363,0.173,-28.870,-65.002,-142.700
-0.705,0.374,0.153,-26.917,-77.087,-131.531
-0.875,0.359,0.088,-25.818,-85.327,-120.605
-1.096,0.379,0.022,-25.024,-88.257,-107.239
-1.339,0.360,-0.016,-22.339,-83.862,-92.285
-1.515,0.332,-0.036,-19.409,-76.355,-77.515
-1.604,0.295,-0.042,-18.677,-69.397,-61.829
-1.635,0.325,-0.024,-15.991,-57.068,-45.410
-1.615,0.292,0.031,-11.108,-41.016,-27.405
-1.515,0.201,0.055,-10.132,-31.311,-6.958
-1.570,0.084,-0.040,-14.771,-27.710,11.353
-2.041,-0.025,-0.170,-19.226,-25.757,29.358
-3.060,0.187,0.017,-9.827,-12.695,49.622
-3.094,0.965,0.590,26.733,15.137,56.091
-1.334,0.985,0.668,37.659,23.071,31.555
-0.176,1.389,0.711,36.926,16.113,3.906
0.573,1.669,0.304,48.279,5.493,-17.822
0.857,1.442,-0.801,22.888,-16.052,-31.067
-0.023,1.781,-1.664,-15.686,-36.438,-16.479
-0.163,2.151,-1.602,-5.737,-39.673,21.301
-0.138,1.497,-0.750,19.165,-21.484,58.960
-0.648,0.935,-0.090,33.264,-2.808,72.449
-1.144,0.530,0.291,37.415,9.033,77.026
-0.963,0.402,0.375,33.325,17.334,48.645
-0.473,0.396,0.067,17.517,13.794,9.216
-0.347,0.558,-0.336,-2.441,6.348,-7.019
-0.322,0.793,-0.461,-9.460,4.395,-12.817
-0.373,0.921,-0.383,-11.780,2.014,-14.771
-0.416,1.089,-0.212,-9.094,2.869,-10.376
-0.380,1.096,-0.164,-6.592,3.967,-6.531
-0.392,0.984,-0.240,-5.859,3.601,-5.920
-0.441,0.844,-0.305,-8.240,3.845,-9.155
-0.469,0.799,-0.295,-12.512,7.324,-15.381
-0.470,0.807,-0.262,-17.273,13.306,-21.362
-0.409,0.883,-0.267,-18.982,18.555,-25.513
-0.417,0.893,-0.273,-18.188,20.203,-27.039
-0.339,0.923,-0.240,-17.883,18.799,-29.358
-0.292,0.982,-0.276,-19.104,17.395,-33.752
-0.336,0.986,-0.316,-18.677,16.541,-33.936
-0.399,0.943,-0.349,-16.052,17.700,-32.043
-0.413,0.913,-0.329,-14.709,22.888,-32.959
-0.412,0.886,-0.343,-13.916,29.480,-36.682
-0.399,0.915,-0.344,-14.282,35.645,-42.175
-0.315,0.945,-0.368,-13.855,41.016,-46.997
-0.262,0.971,-0.417,-15.625,44.373,-50.842
-0.284,1.033,-0.406,-15.564,48.218,-54.321
-0.312,1.070,-0.366,-12.634,51.819,-57.129
-0.323,1.038,-0.325,-9.277,53.833,-58.289
-0.279,0.970,-0.319,-6.958,55.481,-59.631
-0.244,0.929,-0.327,-5.798,54.504,-60.303
-0.170,0.933,-0.304,-4.517,51.697,-58.228
-0.054,0.953,-0.334,-3.784,46.265,-55.603
-0.027,0.992,-0.349,-3.723,40.100,-51.697
-0.072,1.025,-0.328,-2.991,34.058,-46.936
-0.111,1.011,-0.280,0.549,29.419,-41.565
-0.104,0.917,-0.238,3.601,24.292,-36.499
-0.131,0.822,-0.240,3.845,17.883,-31.921
-0.158,0.781,-0.223,3.357,14.038,-28.320
-0.133,0.779,-0.227,0.610,12.634,-26.245
-0.125,0.839,-0.256,-1.160,12.939,-23.926
-0.096,0.929,-0.283,-0.122,14.343,-20.386
-0.120,0.903,-0.334,0.671,18.860,-16.357
-0.158,0.920,-0.354,3.662,26.062,-11.658
-0.130,0.842,-0.312,6.775,31.311,-6.714
-0.059,0.821,-0.333,7.874,29.297,-0.366
0.056,0.859,-0.338,9.216,24.048,9.644
0.015,0.899,-0.307,8.728,16.846,10.010
-0.089,0.955,-0.335,9.705,11.230,9.155
-0.156,0.928,-0.367,11.719,9.277,12.390
-0.216,0.865,-0.410,12.512,10.254,13.672
-0.202,0.891,-0.415,13.428,14.282,13.123
-0.163,1.020,-0.355,13.794,20.935,11.353
-0.170,1.169,-0.323,12.817,27.466,9.644
-0.189,1.330,-0.303,13.367,34.912,8.484
-0.148,1.378,-0.278,13.672,41.077,8.423
-0.123,1.319,-0.254,11.475,42.542,9.277
-0.163,1.262,-0.220,9.033,42.542,10.071
-0.154,1.252,-0.236,6.775,42.480,10.010
-0.154,1.273,-0.273,3.784,43.396,10.010
-0.154,1.352,-0.297,2.075,48.096,10.559
-0.108,1.432,-0.274,1.587,55.603,11.353
-0.015,1.520,-0.225,1.648,60.974,10.986
0.111,1.612,-0.232,2.991,62.073,9.705
0.223,1.663,-0.304,5.310,57.434,9.888
0.314,1.660,-0.411,7.385,48.645,13.916
0.357,1.615,-0.496,10.193,36.377,21.912
0.333,1.519,-0.543,12.146,23.621,33.020
0.220,1.419,-0.573,12.146,17.090,48.157
0.065,1.312,-0.618,11.292,13.245,59.875
-0.011,1.308,-0.640,10.132,6.165,69.885
-0.148,1.415,-0.670,9.766,3.113,78.003
-0.254,1.509,-0.626,8.423,-2.014,77.820
-0.325,1.620,-0.599,10.498,-11.292,83.008
-0.493,1.516,-0.554,6.470,-24.475,49.988
-0.920,1.786,-0.595,7.446,-24.841,67.200
-1.178,1.878,-0.658,19.043,-13.977,118.469
-1.023,1.932,-0.604,28.015,-4.395,144.043
-0.722,1.902,-0.567,29.724,2.014,151.062
-0.631,1.804,-0.581,30.457,9.766,156.494
-0.630,1.745,-0.494,32.837,20.691,156.738
-0.611,1.705,-0.485,33.997,31.189,154.358
-0.549,1.668,-0.491,35.034,37.109,154.480
-0.469,1.621,-0.495,37.476,42.419,154.419
-0.319,1.526,-0.445,40.955,42.297,152.222
-0.103,1.387,-0.376,42.725,32.776,148.682
0.048,1.243,-0.283,42.297,16.541,142.456
0.075,1.113,-0.264,40.283,3.296,134.216
0.085,0.985,-0.234,38.330,-3.723,123.901
0.125,0.805,-0.190,36.499,-6.409,110.291
0.148,0.700,-0.130,36.072,-7.019,96.130
0.263,0.580,-0.129,33.813,-7.141,85.632
0.301,0.528,-0.079,31.555,-5.737,70.129
0.352,0.494,-0.071,32.654,-5.371,50.293
0.398,0.413,-0.069,31.860,-8.911,34.790
0.441,0.224,-0.063,26.978,-17.883,22.644
0.469,0.163,-0.045,22.278,-27.527,7.507
0.459,0.109,-0.028,16.541,-38.086,-7.751
0.363,0.135,-0.038,11.414,-46.692,-22.888
0.300,0.144,-0.054,6.958,-51.514,-38.025
0.275,0.144,-0.038,3.601,-54.688,-53.040
0.260,0.124,-0.038,0.061,-58.899,-66.711
0.195,0.126,-0.028,-2.991,-63.843,-78.491
0.104,0.125,-0.018,-4.944,-68.665,-88.745
0.063,0.102,-0.058,-6.226,-75.867,-99.243
-0.027,0.102,-0.089,-7.629,-79.773,-111.450
-0.113,0.086,-0.136,-9.705,-78.796,-122.437
-0.175,0.093,-0.122,-12.024,-75.256,-131.104
-0.251,0.106,-0.109,-14.099,-73.364,-136.536
-0.403,0.131,-0.081,-14.343,-69.641,-139.221
-0.469,0.142,-0.035,-14.099,-67.810,-138.367
-0.543,0.134,-0.000,-14.587,-67.993,-134.827
-0.683,0.129,0.024,-14.465,-69.580,-128.174
-0.853,0.134,0.052,-13.184,-72.083,-119.019
-1.060,0.125,0.027,-11.353,-71.594,-108.459
-1.210,0.090,0.009,-9.277,-68.176,-97.046
-1.277,0.044,-0.003,-9.338,-66.345,-83.191
-1.339,0.061,-0.024,-7.629,-60.669,-67.322
-1.401,0.076,-0.040,-4.456,-54.138,-49.133
-1.416,0.086,-0.047,0.244,-47.424,-29.297
-1.277,0.003,-0.011,1.892,-40.771,-11.536
-1.060,-0.075,0.000,3.052,-34.912,-1.709
-1.060,-0.226,-0.075,0.122,-34.912,8.789
-2.137,-0.634,-0.597,-14.526,-40.894,32.593
-3.146,-0.417,-0.478,-0.366,-40.894,67.688
-2.495,0.029,-0.265,0.549,-40.039,61.462
-1.468,1.302,0.011,-3.052,-37.476,17.944
0.418,1.844,-0.145,1.404,-34.119,-33.569
0.559,2.445,-0.094,9.338,-16.357,-75.378
-0.474,2.524,-0.549,-2.869,-2.625,-69.946
-0.803,3.124,-0.576,-1.465,5.920,-22.034
-0.060,2.377,-0.364,18.127,11.230,33.752
0.031,1.258,-0.234,20.630,2.258,51.819
-0.557,0.689,-0.263,29.175,-5.188,59.448
-0.943,0.099,-0.156,32.776,-8.423,69.397
-0.685,-0.200,-0.049,22.217,-12.878,45.837
-0.339,-0.120,-0.035,2.197,-21.301,-4.639
-0.507,0.397,-0.146,-15.991,-22.644,-34.607
-0.648,0.928,-0.227,-22.644,-15.198,-45.654
-0.459,1.225,-0.307,-22.583,-6.104,-46.936
-0.404,1.337,-0.359,-19.348,1.099,-39.917
-0.398,1.297,-0.334,-13.611,6.287,-28.809
-0.349,1.126,-0.307,-9.094,7.141,-23.926
-0.399,0.918,-0.285,-10.010,3.845,-24.963
-0.429,0.820,-0.254,-13.855,1.404,-30.273
-0.400,0.788,-0.240,-17.761,0.610,-36.560
-0.382,0.758,-0.238,-21.179,0.549,-41.077
-0.415,0.859,-0.265,-22.949,1.038,-44.678
-0.410,0.950,-0.285,-19.470,3.052,-44.800
-0.356,0.982,-0.330,-14.893,8.179,-45.654
-0.329,0.949,-0.337,-13.672,10.132,-48.645
-0.352,0.969,-0.305,-10.864,5.798,-46.387
-0.354,0.929,-0.326,-9.094,10.010,-47.607
-0.362,0.912,-0.349,-10.376,24.780,-54.871
-0.353,0.894,-0.376,-12.939,34.241,-61.523
-0.257,0.937,-0.367,-16.357,35.828,-65.674
-0.137,0.998,-0.348,-16.541,31.372,-65.369
-0.126,1.063,-0.324,-13.367,23.315,-57.312
-0.144,1.082,-0.278,-8.667,20.203,-50.476
-0.155,1.043,-0.251,-5.188,21.912,-47.913
-0.150,0.970,-0.276,-4.028,24.109,-46.570
-0.114,0.926,-0.293,-3.723,22.644,-44.067
-0.101,0.890,-0.322,-4.272,18.188,-40.283
-0.058,0.884,-0.329,-3.479,13.123,-35.400
-0.033,0.891,-0.304,-3.235,8.545,-30.457
-0.109,0.901,-0.302,-3.235,4.272,-26.184
-0.116,0.900,-0.280,-2.563,1.282,-22.217
-0.090,0.880,-0.264,-2.625,-0.488,-20.264
-0.102,0.881,-0.252,-3.418,-1.892,-18.494
-0.146,0.916,-0.269,-2.563,-3.235,-15.320

-0.303,0.949,-0.226,14.771,22.278,61.035
-0.254,0.944,-0.250,14.038,22.827,61.279
-0.259,0.958,-0.286,13.062,23.987,61.646
-0.254,0.975,-0.300,12.878,25.269,61.523
-0.288,0.976,-0.226,13.184,24.841,60.608
-0.344,0.953,-0.235,13.794,23.315,59.143
-0.422,0.902,-0.188,12.878,21.912,53.772
-0.457,0.864,-0.152,16.113,23.499,50.354
-0.512,0.776,-0.159,19.531,25.391,47.485
-0.527,0.706,-0.188,18.738,23.865,41.809
-0.511,0.699,-0.260,17.395,21.484,34.058
-0.560,0.787,-0.283,16.235,21.790,22.644
-0.530,0.928,-0.317,16.724,25.330,12.451
-0.450,1.065,-0.321,17.334,28.931,2.991
-0.403,1.211,-0.330,17.639,30.762,-2.380
-0.312,1.344,-0.338,18.738,30.334,-2.991
-0.331,1.422,-0.342,18.555,29.602,-2.502
-0.356,1.490,-0.331,17.212,32.959,-1.404
-0.305,1.540,-0.309,16.357,38.452,-0.977
-0.295,1.580,-0.304,16.113,45.471,-0.916
-0.229,1.620,-0.310,16.602,53.101,-0.427
-0.121,1.634,-0.312,17.212,57.434,-0.427
-0.045,1.648,-0.338,17.639,58.472,-0.610
0.058,1.623,-0.352,18.555,56.946,0.732
0.136,1.556,-0.351,18.066,52.429,3.479
0.141,1.493,-0.354,16.846,48.218,7.812
0.129,1.442,-0.339,15.564,43.457,14.038
0.135,1.405,-0.341,14.343,35.706,21.362
0.142,1.380,-0.370,13.123,24.658,29.419
0.211,1.330,-0.436,10.559,6.592,39.429
0.323,1.348,-0.451,11.475,-20.203,47.424
0.254,1.337,-0.507,11.108,-45.776,52.917
0.092,1.359,-0.506,11.108,-59.387,58.838
-0.057,1.332,-0.529,9.094,-77.148,71.167
-0.469,1.376,-0.635,3.540,-85.388,80.139
-0.939,1.587,-0.644,3.784,-80.322,85.815
-1.179,1.684,-0.665,2.869,-64.453,77.454
-1.115,1.693,-0.822,-3.418,-41.687,68.970
-0.835,1.773,-0.921,0.305,-8.057,98.694
-0.737,1.652,-0.899,2.747,25.879,110.168
-0.670,1.561,-0.904,4.333,55.054,110.901
-0.555,1.490,-0.819,3.357,74.829,104.919
-0.455,1.413,-0.710,0.183,87.097,93.323
-0.404,1.382,-0.593,2.441,95.886,80.994
-0.324,1.333,-0.472,5.920,95.703,75.256
-0.218,1.273,-0.338,7.751,90.088,69.824
-0.076,1.196,-0.245,8.911,77.087,64.148
0.064,1.096,-0.140,8.789,58.411,57.800
0.115,1.006,-0.056,8.667,39.368,48.706
0.150,0.935,-0.022,8.728,22.888,38.940
0.206,0.804,-0.002,7.385,7.629,31.433
0.200,0.735,0.027,5.432,-4.211,23.743
0.185,0.638,0.059,7.385,-11.841,14.771
0.297,0.453,0.035,5.371,-21.790,3.784
0.318,0.379,0.058,3.296,-32.654,-9.460
0.273,0.262,0.049,2.136,-41.931,-22.400
0.316,0.217,-0.005,-0.244,-51.819,-37.354
0.297,0.241,-0.011,-1.343,-61.646,-56.152
0.165,0.283,-0.022,0.488,-64.148,-76.721
0.059,0.307,-0.019,3.479,-57.922,-96.863
0.083,0.250,-0.018,5.371,-49.011,-113.953
0.064,0.183,-0.012,6.226,-38.452,-128.601
0.011,0.126,0.021,5.798,-26.428,-140.076
-0.020,0.084,0.056,3.540,-17.212,-148.560
0.010,0.034,0.136,-0.977,-14.771,-155.151
0.046,0.074,0.222,-7.202,-24.658,-158.447
-0.004,0.113,0.281,-11.536,-41.504,-156.738
-0.104,0.121,0.284,-13.916,-61.768,-154.541
-0.329,0.120,0.237,-14.709,-83.923,-154.175
-0.522,0.167,0.142,-15.198,-104.126,-151.855
-0.789,0.214,0.033,-16.418,-113.220,-145.874
-1.150,0.255,-0.046,-16.968,-105.103,-137.146
-1.450,0.290,-0.054,-13.855,-83.313,-124.878
-1.592,0.314,0.028,-10.254,-64.026,-109.436
-1.714,0.349,0.120,-3.662,-50.232,-93.506
-1.706,0.334,0.201,2.686,-42.847,-75.500
-1.653,0.343,0.241,9.277,-36.621,-57.312
-1.608,0.348,0.247,14.099,-36.011,-35.034
-1.481,0.311,0.245,15.747,-38.330,-12.573
-1.332,0.210,0.163,14.221,-43.518,6.104
-1.199,0.130,0.121,12.451,-50.842,21.545
-0.961,0.033,0.074,11.475,-55.664,34.241
-0.733,-0.087,0.066,10.803,-56.396,41.748
-1.239,-0.373,0.040,2.930,-57.251,47.607
-2.586,-0.275,-0.461,-11.658,-61.340,64.758
-3.212,1.201,-0.731,-30.273,-86.426,48.096
-2.055,3.544,-0.762,-8.118,-84.595,-30.151
2.168,3.356,-0.577,-12.451,-50.720,-56.519
2.240,1.916,-0.745,-30.823,-16.479,-7.019
-0.480,1.784,-0.723,-10.193,24.292,83.008
-1.094,1.209,-0.205,18.921,51.208,132.629
-0.993,0.609,-0.029,29.053,49.072,129.089
-0.997,-0.221,0.220,33.081,38.818,93.933
-0.582,-0.414,0.248,2.930,20.935,37.964
-0.386,0.330,0.035,-15.381,4.333,-3.113
-0.486,0.932,-0.320,-30.090,-0.366,-27.832
-0.525,1.317,-0.394,-36.499,-3.540,-24.170
-0.397,1.372,-0.305,-28.931,-1.892,-10.437
-0.349,1.229,-0.230,-18.433,6.836,-2.625
-0.378,1.053,-0.214,-12.695,11.475,-2.380
-0.406,0.892,-0.255,-13.245,12.451,-6.897
-0.427,0.776,-0.261,-18.555,11.230,-14.832
-0.448,0.760,-0.231,-22.400,10.681,-21.362
-0.431,0.769,-0.191,-25.513,11.475,-27.222
-0.411,0.830,-0.195,-28.442,12.024,-33.142
-0.372,0.916,-0.232,-29.968,12.390,-38.147
-0.329,1.004,-0.262,-29.297,12.024,-41.565
-0.304,1.000,-0.245,-25.513,10.193,-42.786
-0.358,0.954,-0.260,-23.376,8.118,-45.166
-0.381,0.913,-0.235,-21.606,8.728,-47.729
-0.355,0.895,-0.276,-20.935,12.207,-51.392
-0.338,0.916,-0.287,-20.447,18.127,-55.969
-0.339,0.924,-0.308,-19.409,22.888,-59.326
-0.290,0.945,-0.274,-16.418,25.330,-61.890
-0.272,0.933,-0.293,-14.771,26.245,-65.613
-0.233,0.964,-0.310,-12.085,24.231,-66.528
-0.195,0.987,-0.313,-6.897,23.010,-63.782
-0.191,0.944,-0.351,-5.310,26.489,-64.392
-0.180,0.934,-0.346,-3.784,28.442,-64.026
-0.126,0.917,-0.328,0.061,28.015,-59.875
-0.087,0.866,-0.312,0.061,24.109,-56.519
-0.093,0.852,-0.285,-2.319,18.799,-54.443
-0.061,0.875,-0.251,-3.723,13.489,-52.979
0.007,0.893,-0.249,-5.310,9.216,-50.781
0.022,0.900,-0.286,-7.568,3.662,-46.814
-0.007,0.932,-0.305,-7.568,-1.709,-40.710
0.035,0.931,-0.298,-6.592,-5.554,-34.607
0.046,0.922,-0.331,-6.836,-9.094,-29.297
-0.016,0.960,-0.309,-6.409,-9.521,-22.949
-0.077,0.994,-0.254,-5.859,-5.981,-18.433
-0.072,1.002,-0.261,-5.554,-0.977,-14.587
-0.077,0.990,-0.263,-4.822,6.287,-10.437
-0.075,0.985,-0.306,-3.784,13.428,-7.019
-0.016,0.972,-0.328,-2.625,17.578,-3.418
0.056,0.968,-0.306,-2.502,17.456,0.732
-0.018,0.993,-0.284,-2.808,17.395,4.578
-0.098,1.020,-0.263,-1.343,20.996,7.507
-0.089,1.006,-0.264,0.000,24.353,10.620
0.004,0.995,-0.300,1.465,25.269,13.855
0.030,0.980,-0.369,1.770,23.804,16.785
-0.013,1.020,-0.372,3.784,22.766,20.264
-0.006,1.062,-0.342,7.507,22.278,22.766
-0.102,1.049,-0.390,9.766,22.827,23.315
-0.140,1.092,-0.360,12.024,26.489,23.621
-0.133,1.125,-0.350,13.306,30.518,22.217
-0.226,1.177,-0.348,14.282,38.086,20.569
-0.225,1.212,-0.260,16.296,48.584,19.287
-0.180,1.194,-0.243,16.846,55.481,18.250
-0.173,1.162,-0.234,15.930,60.059,16.113
-0.200,1.163,-0.233,14.099,62.378,13.672
-0.247,1.207,-0.250,12.695,65.491,11.230
-0.192,1.252,-0.199,11.414,69.336,8.240
-0.141,1.311,-0.197,7.324,71.472,5.249
-0.107,1.422,-0.200,4.456,73.486,3.418
-0.047,1.498,-0.215,3.357,74.280,2.747
0.013,1.553,-0.216,3.723,73.914,2.197
0.085,1.606,-0.236,5.859,71.228,2.136
0.196,1.624,-0.288,7.874,66.711,3.479
0.262,1.612,-0.381,10.071,61.096,7.446
0.312,1.574,-0.477,12.573,53.772,13.855
0.366,1.498,-0.531,16.113,41.870,21.790
0.345,1.398,-0.480,18.005,33.813,31.189
0.291,1.319,-0.485,19.043,23.987,44.434
0.216,1.381,-0.538,19.287,5.737,59.509
0.101,1.478,-0.660,17.822,-20.752,76.477
-0.100,1.582,-0.574,15.991,-51.453,94.543
-0.438,1.687,-0.621,11.230,-77.759,111.511
-0.808,1.726,-0.640,3.174,-92.407,104.858
-1.084,1.985,-0.665,3.113,-93.567,116.638
-1.085,2.077,-0.773,5.188,-83.191,140.625
-0.971,2.094,-0.914,6.042,-61.584,165.161
-0.759,2.112,-0.932,9.583,-34.790,190.125
-0.671,2.069,-0.871,16.724,-13.367,206.116
-0.631,1.970,-0.805,19.165,2.441,210.632
-0.565,1.862,-0.784,17.517,16.907,205.688
-0.374,1.730,-0.716,13.733,24.780,196.106
-0.230,1.617,-0.696,15.320,38.147,183.411
-0.029,1.429,-0.592,18.799,46.814,170.898
0.170,1.253,-0.466,22.095,49.133,159.546
0.286,1.102,-0.354,25.330,47.668,146.057
0.417,0.985,-0.282,28.809,42.542,129.028
0.605,0.843,-0.250,30.579,34.790,111.206
0.697,0.627,-0.188,27.710,29.114,94.543
0.673,0.496,-0.156,24.963,29.846,74.280
0.696,0.461,-0.155,22.583,31.250,50.354
0.741,0.348,-0.146,20.813,28.503,26.978
0.806,0.196,-0.117,18.066,21.179,4.822
0.829,0.065,-0.083,13.489,10.071,-17.334
0.771,-0.029,-0.068,8.301,-2.991,-38.818
0.692,-0.072,-0.032,3.601,-18.250,-56.274
0.659,-0.066,-0.024,-2.197,-33.203,-75.378
0.582,0.029,-0.003,-7.568,-44.800,-95.215
0.426,0.117,-0.010,-9.277,-52.490,-112.793
0.336,0.150,-0.019,-10.010,-58.411,-127.197
0.332,0.099,-0.088,-12.573,-64.819,-137.939
0.206,0.012,-0.112,-17.578,-68.237,-147.400
-0.020,0.011,-0.103,-20.203,-63.904,-157.532
-0.215,0.014,-0.072,-21.057,-51.758,-167.786
-0.303,0.046,0.056,-23.682,-41.626,-173.767
-0.393,0.109,0.219,-26.917,-39.612,-172.241
-0.495,0.180,0.304,-28.992,-49.744,-163.330
-0.629,0.207,0.309,-30.457,-67.444,-149.963
-0.917,0.177,0.191,-31.372,-86.731,-135.193
-1.295,0.131,0.065,-30.762,-95.398,-118.774
-1.628,0.072,0.002,-30.334,-90.820,-101.990
-1.873,0.083,0.022,-27.954,-80.811,-82.458
-2.021,0.121,0.064,-24.048,-69.275,-59.021
-2.015,0.138,0.118,-21.851,-65.247,-32.898
-1.975,0.097,0.102,-23.376,-64.758,-5.005
-2.277,-0.075,-0.121,-34.241,-63.965,24.902
-3.291,0.062,-0.185,-34.607,-56.946,60.974
-3.396,0.653,0.287,4.578,-33.569,87.830
-1.644,0.810,0.731,26.123,-11.414,63.232
0.157,0.948,0.710,23.682,-6.042,28.625
1.258,1.145,0.658,37.537,1.099,-1.282
1.102,0.932,-0.004,28.381,2.686,-30.640
-1.140,1.030,-1.079,-22.522,-12.024,-29.358
-2.029,2.278,-1.751,-25.879,-47.180,-2.319
-0.056,1.925,-1.347,5.188,-55.237,3.662
0.463,1.436,-0.504,7.935,-12.451,9.766
-0.607,1.388,-0.137,11.841,24.231,39.124
-0.965,1.225,0.062,34.119,43.884,62.622
-0.574,0.705,0.276,34.424,47.607,53.223
-0.484,0.421,0.181,26.428,32.898,35.095
-0.484,0.245,-0.044,10.864,14.038,16.846
-0.475,0.408,-0.254,-5.676,1.099,-11.780
-0.427,0.732,-0.373,-15.198,-6.531,-26.672
-0.388,1.010,-0.366,-15.686,-11.230,-25.635
-0.394,1.110,-0.304,-13.000,-11.353,-20.020
-0.449,1.090,-0.264,-10.010,-8.179,-17.090
-0.423,0.986,-0.232,-8.484,-4.211,-17.944
-0.435,0.847,-0.258,-10.437,0.000,-21.729
-0.473,0.787,-0.273,-13.428,3.601,-28.015
-0.414,0.759,-0.247,-14.954,3.662,-34.790
-0.328,0.721,-0.228,-16.907,-0.854,-41.138
-0.402,0.770,-0.251,-21.851,-6.592,-46.875
-0.474,0.903,-0.227,-22.888,-9.216,-51.270
-0.378,1.039,-0.245,-20.508,-8.179,-55.115

-0.032,1.668,-0.349,21.790,28.442,46.570
0.025,1.666,-0.360,21.851,32.654,51.819
0.081,1.660,-0.409,21.729,34.912,55.237
0.145,1.681,-0.494,20.325,37.354,58.533
0.182,1.671,-0.553,19.348,41.748,62.927
0.167,1.604,-0.545,19.104,48.096,68.542
0.137,1.523,-0.516,18.860,50.171,73.547
0.127,1.508,-0.484,18.677,45.532,75.562
0.030,1.502,-0.497,15.381,42.969,77.087
0.027,1.539,-0.536,14.282,41.199,79.224
-0.017,1.547,-0.533,14.404,34.851,80.017
-0.185,1.505,-0.565,14.221,26.855,84.595
-0.227,1.452,-0.536,15.869,15.503,97.656
-0.426,1.333,-0.542,12.451,3.967,105.835
-0.807,1.383,-0.544,10.376,-2.441,106.750
-0.966,1.441,-0.521,10.010,-2.563,107.666
-0.740,1.492,-0.566,5.920,1.099,102.844
-0.526,1.542,-0.575,2.869,8.362,90.637
-0.501,1.430,-0.576,5.676,25.452,87.341
-0.485,1.276,-0.548,11.353,46.814,88.196
-0.419,1.112,-0.449,11.780,61.646,82.031
-0.377,1.057,-0.348,11.353,69.031,74.524
-0.322,1.021,-0.223,11.658,69.214,66.956
-0.259,1.010,-0.119,11.292,61.646,58.350
-0.146,0.967,-0.049,11.414,45.288,50.781
-0.045,0.912,-0.009,9.644,21.912,44.006
-0.066,0.859,-0.025,5.859,2.258,37.903
-0.152,0.845,-0.045,2.380,-8.667,31.738
-0.169,0.804,-0.041,-0.305,-16.174,25.330
-0.184,0.756,-0.041,-2.991,-20.874,18.433
-0.172,0.651,-0.039,-4.761,-24.231,12.695
-0.103,0.592,-0.019,-7.568,-30.090,6.775
-0.062,0.587,-0.017,-9.521,-37.659,-1.465
-0.056,0.620,-0.032,-11.108,-44.495,-10.742
-0.033,0.663,-0.047,-12.390,-52.307,-19.226
-0.050,0.644,-0.073,-13.123,-61.218,-26.367
-0.140,0.587,-0.062,-12.268,-66.284,-35.339
-0.204,0.500,-0.036,-10.986,-69.702,-44.373
-0.127,0.439,-0.062,-10.315,-77.881,-55.237
-0.091,0.325,-0.074,-10.193,-83.801,-66.772
-0.102,0.272,-0.114,-11.902,-86.121,-76.843
-0.165,0.237,-0.121,-14.160,-85.632,-84.656
-0.232,0.207,-0.115,-16.418,-81.238,-92.041
-0.233,0.149,-0.091,-18.066,-75.439,-99.609
-0.230,0.123,-0.057,-19.348,-72.144,-108.582
-0.224,0.120,-0.013,-20.020,-69.458,-116.394
-0.176,0.100,0.026,-20.935,-70.496,-120.483
-0.178,0.079,0.064,-24.048,-75.989,-120.361
-0.243,0.079,0.124,-26.428,-85.205,-116.028
-0.311,0.096,0.153,-25.940,-97.412,-112.549
-0.411,0.068,0.102,-24.719,-110.535,-110.718
-0.586,0.076,0.007,-25.146,-118.713,-108.704
-0.779,0.096,-0.077,-25.269,-118.958,-104.370
-0.990,0.106,-0.163,-26.550,-106.995,-99.792
-1.147,0.135,-0.163,-27.222,-90.088,-92.163
-1.192,0.148,-0.084,-27.527,-78.979,-81.177
-1.310,0.191,-0.041,-21.301,-59.814,-70.740
-1.346,0.182,0.029,-13.611,-42.847,-59.570
-1.307,0.158,0.057,-10.742,-33.447,-44.800
-1.279,0.107,0.006,-13.733,-29.053,-29.297
-1.368,0.029,-0.128,-21.667,-28.320,-13.977
-1.781,-0.064,-0.276,-33.569,-30.151,3.235
-2.934,0.052,-0.307,-40.405,-24.353,29.541
-4.000,1.034,0.163,-15.198,1.221,54.077
-2.896,1.748,0.728,25.696,35.583,43.762
-0.564,1.723,0.796,26.489,41.992,19.165
0.672,1.794,0.694,34.912,32.471,8.972
1.342,1.551,0.157,58.594,28.625,2.747
1.125,0.956,-0.711,34.973,13.550,-8.789
-0.857,1.235,-1.499,-13.733,-16.541,2.502
-0.956,1.989,-1.400,5.066,-35.950,37.537
-0.103,1.061,-0.612,20.386,-29.297,55.054
-0.546,0.614,-0.006,22.339,-7.812,51.880
-1.125,0.552,0.289,28.992,7.690,49.622
-0.734,0.541,0.290,21.606,17.029,29.541
-0.327,0.584,-0.129,8.789,14.465,-1.526
-0.381,0.739,-0.432,0.549,8.667,-7.996
-0.380,0.859,-0.458,-0.305,8.545,-10.010
-0.344,0.977,-0.333,-0.366,7.568,-13.794
-0.365,1.075,-0.209,1.953,4.639,-11.719
-0.364,1.059,-0.183,4.822,1.343,-8.118
-0.376,0.903,-0.243,3.784,-2.686,-9.216
-0.388,0.829,-0.281,0.366,-4.456,-14.038
-0.450,0.796,-0.265,-3.906,-2.014,-18.921
-0.470,0.825,-0.208,-6.958,3.235,-22.705
-0.405,0.862,-0.194,-8.850,8.057,-27.161
-0.376,0.926,-0.218,-9.644,9.460,-29.785
-0.287,0.943,-0.200,-7.263,6.409,-30.945
-0.316,0.870,-0.235,-9.766,0.671,-33.264
-0.368,0.929,-0.241,-10.986,-2.930,-34.790
-0.390,0.895,-0.248,-10.986,-2.625,-35.645
-0.396,0.888,-0.248,-11.047,1.160,-37.842
-0.402,0.901,-0.250,-11.414,6.104,-40.833
-0.357,0.938,-0.246,-10.376,9.949,-43.945
-0.321,0.937,-0.270,-9.521,12.878,-47.729
-0.333,0.936,-0.293,-10.071,14.954,-51.514
-0.289,0.927,-0.287,-9.827,15.930,-54.016
-0.245,0.965,-0.307,-8.789,17.151,-56.152
-0.148,0.944,-0.317,-8.789,16.296,-56.641
-0.146,0.957,-0.348,-9.460,13.428,-55.908
-0.117,0.995,-0.345,-7.507,10.254,-53.284
-0.065,0.982,-0.323,-5.127,8.301,-50.903
-0.077,0.932,-0.311,-3.906,5.676,-47.363
-0.120,0.908,-0.289,-2.380,1.648,-42.419
-0.095,0.904,-0.261,-2.075,-1.282,-37.903
-0.008,0.903,-0.283,-3.174,-4.272,-34.241
-0.006,0.927,-0.261,-5.188,-8.179,-29.175
-0.079,0.989,-0.237,-4.761,-11.963,-22.583
-0.081,1.001,-0.248,-2.991,-12.024,-16.724
-0.068,0.973,-0.276,-3.174,-8.362,-11.780
-0.172,0.986,-0.277,-1.465,-1.526,-6.409
-0.169,0.994,-0.279,2.991,8.728,-0.854
-0.037,0.939,-0.300,5.676,16.296,4.150
-0.020,0.944,-0.295,5.859,18.433,8.728
-0.051,0.961,-0.251,5.493,17.151,12.695
-0.139,0.965,-0.247,5.066,16.052,15.991
-0.139,0.986,-0.256,6.226,17.151,17.883
-0.155,1.016,-0.316,6.470,17.700,19.348
-0.182,1.065,-0.318,9.094,19.470,20.630
-0.163,1.094,-0.359,12.024,24.902,22.400
-0.136,1.142,-0.377,15.503,31.189,24.902
-0.133,1.160,-0.344,18.005,34.241,23.193
-0.264,1.123,-0.323,19.470,34.058,20.874
-0.342,1.072,-0.291,20.996,37.048,19.165
-0.321,1.057,-0.273,20.630,41.626,17.029
-0.251,1.118,-0.264,17.883,46.082,12.512
-0.213,1.239,-0.264,14.160,49.622,7.080
-0.240,1.351,-0.241,10.986,55.054,3.601
-0.227,1.446,-0.231,7.751,61.890,1.953
-0.198,1.524,-0.224,3.906,68.970,0.916
-0.118,1.603,-0.247,0.427,75.378,0.305
-0.033,1.669,-0.304,-2.502,79.956,1.099
0.048,1.755,-0.373,-4.517,83.496,2.686
0.175,1.790,-0.376,-2.747,86.365,3.967
0.297,1.736,-0.421,0.000,85.754,5.127
0.365,1.670,-0.512,1.953,84.290,9.216
0.387,1.607,-0.589,3.418,84.412,17.273
0.381,1.525,-0.621,4.517,84.290,26.489
0.305,1.447,-0.631,5.493,79.895,34.729
0.211,1.383,-0.646,4.761,66.895,41.321
0.007,1.386,-0.651,2.441,51.514,47.668
-0.257,1.497,-0.627,2.502,40.466,53.894
-0.466,1.608,-0.586,3.235,27.283,69.153
-0.665,1.785,-0.519,4.700,16.785,91.003
-1.046,1.945,-0.480,8.667,9.583,91.980
-1.291,1.803,-0.642,9.888,3.540,68.481
-1.154,2.018,-0.631,16.296,9.338,98.328
-0.816,2.011,-0.658,23.071,25.574,141.907
-0.676,1.925,-0.597,31.616,38.635,158.447
-0.566,1.793,-0.488,36.194,48.889,164.001
-0.468,1.763,-0.455,40.100,52.979,169.800
-0.397,1.638,-0.454,40.100,54.321,167.847
-0.310,1.511,-0.416,37.903,51.697,160.217
-0.112,1.377,-0.347,38.452,42.603,155.029
0.101,1.237,-0.264,40.405,27.283,150.146
0.250,1.094,-0.224,41.443,7.812,142.578
0.286,0.944,-0.220,40.588,-8.911,135.315
0.329,0.747,-0.242,36.560,-19.653,128.357
0.388,0.635,-0.255,33.875,-24.536,116.089
0.343,0.502,-0.256,32.349,-22.766,102.173
0.365,0.437,-0.240,32.715,-18.677,87.646
0.432,0.329,-0.226,33.997,-14.587,71.960
0.459,0.162,-0.195,32.715,-14.038,55.298
0.470,0.046,-0.197,30.457,-15.198,35.339
0.502,0.004,-0.197,27.466,-18.738,11.353
0.488,-0.052,-0.147,21.606,-26.550,-10.254
0.418,-0.023,-0.136,13.550,-33.569,-26.855
0.398,0.022,-0.118,7.385,-39.978,-40.955
0.404,0.050,-0.099,3.113,-46.997,-53.955
0.381,0.010,-0.098,-1.099,-55.481,-66.589
0.344,-0.053,-0.079,-6.226,-65.308,-79.102
0.291,-0.041,-0.047,-10.681,-75.500,-92.407
0.229,0.021,-0.079,-14.282,-83.435,-105.042
0.196,0.055,-0.115,-17.517,-89.111,-115.662
0.162,0.063,-0.142,-21.118,-93.567,-123.596
0.088,0.056,-0.141,-25.269,-98.755,-129.639
-0.047,0.061,-0.152,-28.320,-102.356,-136.658
-0.178,0.081,-0.150,-30.090,-101.807,-144.653
-0.251,0.135,-0.136,-30.701,-101.624,-151.062
-0.324,0.172,-0.168,-32.166,-102.112,-152.771
-0.404,0.221,-0.169,-32.837,-104.614,-150.330
-0.584,0.238,-0.229,-33.691,-104.675,-148.315
-0.839,0.285,-0.258,-33.142,-95.581,-146.912
-0.997,0.338,-0.184,-31.372,-81.604,-142.578
-1.059,0.388,-0.084,-29.541,-72.693,-134.033
-1.086,0.426,0.004,-26.733,-67.993,-121.216
-1.065,0.447,0.091,-23.621,-69.214,-105.408
-1.032,0.450,0.129,-20.264,-74.280,-88.379
-0.931,0.377,0.167,-17.883,-79.834,-75.012
-0.856,0.123,-0.047,-25.696,-93.689,-63.599
-2.688,-0.343,-0.476,-81.543,-111.328,-38.269
-4.000,1.708,-0.371,-105.286,-132.690,28.870
-4.000,4.000,0.648,41.016,-91.858,37.048
0.029,2.061,1.100,44.189,-44.739,29.419
2.174,0.456,1.100,38.635,-24.292,35.400
1.379,0.190,0.091,60.425,-17.212,44.495
0.312,-0.206,-1.961,22.766,-32.349,32.166
-0.813,1.287,-2.164,-23.499,-38.025,9.338
0.099,2.032,-1.186,11.780,-34.119,6.592
-0.519,1.409,-0.126,35.095,-6.348,39.063
-0.836,1.025,0.513,48.096,14.465,62.012
-0.710,0.771,0.408,43.701,23.621,49.683
-0.457,0.611,-0.141,28.748,23.071,20.081
-0.248,0.588,-0.544,6.836,14.160,-0.305
-0.216,0.755,-0.448,0.244,10.742,3.113
-0.385,0.878,-0.130,2.258,10.742,5.859
-0.474,0.945,0.004,0.244,7.996,2.563
-0.394,1.000,-0.085,-3.540,4.089,-2.808
-0.279,1.051,-0.244,-6.165,0.244,-6.653
-0.272,1.052,-0.316,-4.517,-1.282,-6.531
-0.400,0.952,-0.260,-1.282,1.038,-4.944
-0.464,0.824,-0.185,-2.502,6.287,-6.653
-0.446,0.815,-0.193,-7.507,11.841,-14.404
-0.349,0.895,-0.243,-10.925,14.648,-22.583
-0.308,0.928,-0.275,-11.597,13.184,-27.222
-0.287,0.929,-0.269,-13.062,9.399,-31.250
-0.347,0.947,-0.270,-12.878,6.592,-35.095
-0.371,0.918,-0.265,-11.475,5.920,-38.025
-0.388,0.890,-0.281,-11.536,9.277,-41.931
-0.384,0.898,-0.317,-10.803,15.015,-46.143
-0.373,0.901,-0.316,-10.132,20.996,-50.598
-0.338,0.915,-0.300,-8.667,26.550,-55.176
-0.319,0.915,-0.302,-7.935,30.640,-59.631
-0.247,0.920,-0.301,-6.714,31.433,-61.768
-0.205,0.896,-0.310,-6.836,28.320,-63.232
-0.212,0.908,-0.299,-7.263,24.292,-64.697
-0.199,0.933,-0.284,-7.812,22.278,-65.979
-0.141,0.920,-0.318,-8.850,21.179,-66.589
-0.104,0.919,-0.352,-9.399,19.165,-65.857
-0.037,0.916,-0.363,-8.911,16.479,-63.904
-0.024,0.884,-0.372,-8.850,14.282,-61.340
-0.044,0.878,-0.350,-8.118,10.803,-57.556
-0.068,0.859,-0.328,-8.057,7.446,-52.673
-0.036,0.879,-0.271,-8.240,5.798,-48.462
-0.018,0.876,-0.258,-9.583,3.601,-43.945
0.030,0.933,-0.264,-10.559,0.916,-38.391
0.053,0.963,-0.293,-11.108,-1.465,-33.142
0.065,0.990,-0.326,-10.925,-2.380,-26.733

-0.080,1.411,-0.296,30.518,32.837,54.626
-0.110,1.419,-0.271,28.748,36.499,55.969
-0.093,1.439,-0.255,26.978,37.720,56.763
-0.063,1.493,-0.241,25.330,34.973,55.847
-0.090,1.594,-0.190,26.489,31.616,54.077
-0.088,1.615,-0.236,26.001,32.043,52.307
-0.032,1.618,-0.237,24.719,35.889,47.729
0.023,1.629,-0.220,25.330,43.518,43.884
0.087,1.594,-0.233,26.184,48.218,41.321
0.151,1.536,-0.266,26.611,47.485,38.818
0.192,1.491,-0.289,27.405,42.114,37.598
0.145,1.446,-0.325,28.320,35.217,37.720
0.094,1.383,-0.373,27.832,26.550,41.443
0.120,1.339,-0.428,25.879,13.489,47.058
0.094,1.375,-0.436,25.940,-0.427,51.575
0.182,1.403,-0.528,27.527,-12.024,55.420
0.361,1.424,-0.541,28.870,-26.245,56.152
-0.147,1.270,-0.654,26.672,-30.579,59.998
-0.426,1.169,-0.687,24.353,-29.236,79.712
-0.579,1.175,-0.775,18.066,-39.246,90.088
-0.965,1.366,-0.646,13.550,-39.612,90.027
-1.579,1.560,-0.674,13.428,-26.245,99.854
-1.437,1.748,-0.660,13.672,-8.301,111.328
-1.061,1.815,-0.690,8.484,9.766,111.328
-0.858,1.772,-0.697,9.644,29.236,111.877
-0.753,1.602,-0.643,18.433,56.152,114.746
-0.604,1.397,-0.537,22.339,77.515,114.319
-0.477,1.300,-0.463,24.231,84.961,109.009
-0.417,1.257,-0.388,24.597,81.726,103.088
-0.314,1.181,-0.329,24.231,69.519,98.450
-0.173,1.082,-0.245,21.606,48.462,93.445
-0.074,1.003,-0.148,20.264,23.926,88.074
-0.056,0.931,-0.102,20.142,1.465,82.520
-0.051,0.828,-0.093,18.860,-16.907,76.477
0.001,0.745,-0.077,15.991,-31.982,68.665
-0.007,0.715,-0.084,14.771,-41.748,60.303
0.077,0.589,-0.057,15.259,-49.866,53.345
0.309,0.516,-0.156,13.184,-63.538,42.664
0.383,0.389,-0.181,8.240,-75.684,32.593
0.323,0.385,-0.170,5.493,-80.994,22.400
0.245,0.310,-0.159,5.920,-83.252,11.475
0.271,0.192,-0.140,5.066,-84.473,-2.136
0.283,0.100,-0.116,1.709,-85.083,-20.447
0.257,0.111,-0.088,-0.549,-84.106,-42.236
0.236,0.146,-0.061,-2.869,-83.740,-61.157
0.233,0.147,-0.055,-4.150,-85.449,-77.942
0.270,0.162,-0.084,-6.592,-89.600,-93.506
0.281,0.164,-0.120,-10.437,-95.093,-106.445
0.206,0.180,-0.139,-12.024,-99.609,-116.455
0.115,0.171,-0.187,-12.939,-102.356,-125.061
0.025,0.110,-0.254,-15.503,-103.394,-133.972
-0.139,0.086,-0.245,-17.456,-96.802,-145.508
-0.314,0.110,-0.210,-19.165,-84.778,-157.532
-0.402,0.147,-0.130,-22.705,-73.120,-163.208
-0.462,0.205,0.009,-26.550,-65.369,-161.682
-0.549,0.266,0.143,-27.893,-66.467,-155.640
-0.695,0.304,0.223,-27.588,-77.271,-145.630
-0.863,0.336,0.232,-26.917,-94.604,-132.874
-1.088,0.347,0.159,-25.635,-109.375,-119.324
-1.437,0.337,0.022,-23.621,-117.065,-105.103
-1.684,0.317,-0.032,-21.240,-115.173,-89.355
-1.811,0.309,-0.046,-20.752,-106.445,-72.754
-1.891,0.337,0.026,-19.409,-99.365,-52.368
-1.858,0.321,0.128,-13.428,-86.487,-28.748
-1.779,0.201,0.203,-7.202,-69.336,-7.935
-1.843,0.014,0.120,-8.972,-59.387,12.512
-2.373,-0.163,-0.134,-13.184,-53.833,34.607
-3.480,0.134,0.171,4.944,-37.354,60.608
-2.872,0.832,0.716,37.964,-14.282,62.561
-0.701,0.992,0.295,21.484,-12.878,5.798
0.420,1.870,0.169,20.752,-13.733,-32.898
1.242,1.898,-0.591,14.832,-23.010,-44.922
0.556,1.858,-1.531,-23.254,-28.992,-34.912
-0.676,2.311,-1.895,-28.992,-19.714,8.423
-0.416,1.884,-1.093,17.578,1.343,57.983
-0.350,0.974,-0.101,42.664,27.222,73.425
-0.841,0.328,0.262,45.654,47.668,72.998
-1.072,0.115,0.276,37.903,50.964,51.086
-0.443,0.297,0.171,16.968,37.231,6.836
-0.119,0.532,-0.221,-4.089,16.602,-15.747
-0.204,0.790,-0.490,-13.367,1.953,-20.752
-0.298,1.020,-0.488,-13.306,-3.723,-21.973
-0.332,1.191,-0.350,-10.742,-1.526,-18.372
-0.379,1.235,-0.264,-4.883,5.188,-12.695
-0.424,1.092,-0.281,-0.549,11.475,-10.681
-0.397,0.908,-0.302,-1.038,16.602,-14.221
-0.366,0.800,-0.337,-4.211,20.813,-22.034
-0.340,0.785,-0.321,-9.155,22.278,-30.457
-0.292,0.890,-0.303,-13.611,23.682,-36.133
-0.267,1.014,-0.326,-13.855,23.804,-38.147
-0.345,1.071,-0.353,-9.644,21.240,-36.255
-0.403,0.995,-0.297,-5.920,19.531,-35.400
-0.489,0.999,-0.246,-4.089,21.606,-38.757
-0.476,0.966,-0.209,0.000,26.550,-42.542
-0.349,0.935,-0.215,-1.038,31.006,-46.631
-0.265,0.959,-0.246,-4.456,33.264,-53.040
-0.290,0.999,-0.280,-6.592,34.485,-57.007
-0.277,1.023,-0.277,-5.493,36.194,-57.800
-0.217,0.997,-0.273,-4.639,37.354,-58.655
-0.219,0.962,-0.268,-4.578,39.124,-59.387
-0.238,0.899,-0.250,-4.089,41.016,-58.655
-0.246,0.838,-0.241,-3.113,41.138,-57.800
-0.177,0.774,-0.251,-4.150,38.696,-58.472
-0.140,0.750,-0.244,-6.226,34.119,-58.777
-0.128,0.702,-0.260,-9.827,30.884,-59.326
-0.091,0.738,-0.264,-9.155,28.076,-55.481
-0.036,0.754,-0.280,-7.935,21.606,-49.866
-0.030,0.746,-0.364,-9.033,13.855,-44.800
-0.037,0.786,-0.358,-8.179,7.324,-39.856
0.005,0.812,-0.378,-7.263,1.404,-36.865
0.004,0.837,-0.425,-6.409,-1.160,-33.081
-0.102,0.858,-0.421,-3.174,-0.610,-26.917
-0.132,0.860,-0.367,1.221,3.662,-21.179
-0.077,0.837,-0.335,3.113,9.155,-17.090
-0.014,0.875,-0.268,3.906,14.465,-12.329
-0.026,0.921,-0.198,5.432,17.212,-6.653
-0.060,0.994,-0.150,7.996,16.846,0.061
0.058,1.036,-0.118,10.193,13.306,8.118
0.219,1.073,-0.125,8.972,4.700,16.846
0.291,1.122,-0.171,7.202,-7.263,27.344
0.220,1.155,-0.261,5.493,-19.104,36.987
-0.033,1.209,-0.336,6.165,-25.696,43.274
-0.269,1.225,-0.364,11.658,-19.836,45.288
-0.332,1.123,-0.295,16.418,-5.981,43.457
-0.282,1.033,-0.220,18.433,5.066,41.382
-0.250,1.029,-0.274,18.372,10.864,41.931
-0.279,1.096,-0.327,18.250,13.306,39.551
-0.227,1.186,-0.308,17.700,16.296,31.006
-0.186,1.251,-0.292,17.944,18.616,23.193
-0.266,1.309,-0.248,19.531,23.315,16.846
-0.254,1.343,-0.249,20.996,28.015,12.817
-0.214,1.295,-0.302,18.616,31.067,11.108
-0.231,1.303,-0.315,14.648,36.316,9.216
-0.219,1.394,-0.269,11.414,44.617,7.812
-0.124,1.524,-0.261,7.690,53.589,5.981
-0.077,1.639,-0.340,4.578,61.523,5.249
0.008,1.701,-0.422,2.747,68.970,7.507
0.111,1.727,-0.461,0.732,74.768,8.972
0.204,1.722,-0.511,0.366,80.383,10.559
0.325,1.635,-0.577,1.038,81.787,12.512
0.411,1.549,-0.563,2.686,81.726,15.320
0.416,1.434,-0.504,6.287,81.116,23.132
0.359,1.303,-0.447,11.719,75.378,35.767
0.103,1.238,-0.429,13.062,65.247,49.744
-0.156,1.236,-0.496,8.606,48.096,63.049
-0.335,1.384,-0.601,0.427,21.301,75.378
-0.572,1.589,-0.686,-6.348,-5.920,87.463
-0.749,1.729,-0.658,-8.606,-25.513,97.961
-0.868,1.790,-0.696,-8.545,-29.114,106.201
-0.954,1.889,-0.728,-4.211,-14.648,107.422
-0.895,1.895,-0.694,-1.587,9.949,90.942
-0.858,1.905,-0.809,5.127,51.331,92.896
-0.696,1.833,-0.766,19.348,97.900,116.943
-0.511,1.726,-0.632,32.776,126.404,135.071
-0.328,1.622,-0.561,38.086,130.310,141.602
-0.178,1.550,-0.459,37.781,114.563,139.648
-0.111,1.481,-0.366,34.607,91.125,131.470
-0.062,1.410,-0.293,31.921,68.970,125.000
0.023,1.314,-0.244,31.372,47.119,123.230
0.117,1.162,-0.203,29.785,25.269,124.146
0.157,0.999,-0.166,25.208,5.066,122.803
0.165,0.914,-0.167,21.362,-12.756,115.662
0.207,0.850,-0.167,19.226,-26.245,107.361
0.278,0.713,-0.167,15.869,-34.424,100.464
0.355,0.635,-0.198,13.489,-37.170,89.722
0.385,0.519,-0.186,11.658,-34.729,76.843
0.348,0.428,-0.152,8.545,-30.701,63.660
0.377,0.392,-0.115,8.057,-29.053,46.387
0.383,0.285,-0.076,5.920,-29.968,26.917
0.391,0.182,-0.082,1.648,-32.654,7.568
0.466,0.153,-0.054,-2.014,-36.926,-10.498
0.457,0.160,-0.022,-6.409,-43.030,-27.405
0.372,0.218,0.000,-9.766,-49.866,-41.809
0.315,0.237,0.001,-12.817,-57.922,-54.993
0.316,0.232,0.001,-15.991,-67.871,-67.261
0.244,0.232,-0.011,-19.165,-77.942,-79.956
0.149,0.251,-0.051,-20.081,-85.510,-92.712
0.110,0.274,-0.072,-18.250,-91.248,-105.713
0.085,0.222,-0.170,-19.470,-94.116,-116.272
-0.022,0.145,-0.232,-24.109,-91.858,-123.169
-0.190,0.157,-0.205,-26.062,-83.740,-130.188
-0.308,0.143,-0.147,-25.940,-74.463,-136.047
-0.399,0.148,-0.047,-25.696,-65.063,-140.564
-0.510,0.176,0.073,-23.193,-57.556,-142.395
-0.571,0.196,0.184,-20.447,-55.481,-138.611
-0.646,0.212,0.227,-18.616,-61.768,-129.883
-0.810,0.225,0.216,-17.761,-73.059,-116.638
-1.033,0.202,0.154,-17.395,-80.078,-101.257
-1.239,0.152,0.073,-17.883,-81.787,-86.975
-1.424,0.093,-0.039,-18.799,-74.768,-74.219
-1.537,0.058,-0.120,-18.921,-67.871,-59.937
-1.545,0.039,-0.108,-19.043,-65.613,-43.457
-1.561,0.028,-0.077,-16.541,-55.176,-27.222
-1.469,-0.024,-0.017,-12.573,-44.250,-12.329
-1.445,-0.193,-0.088,-17.822,-37.903,3.967
-2.267,-0.654,-0.730,-37.842,-38.574,30.457
-3.141,-0.415,-0.377,-19.409,-26.672,62.683
-2.310,0.101,0.239,10.803,-7.629,59.937
-1.073,0.613,0.453,13.489,5.127,27.710
0.089,1.294,0.239,17.700,-3.174,-17.639
0.233,2.080,0.066,26.733,-3.296,-77.087
-0.736,2.757,-0.451,14.648,-1.099,-112.000
-0.254,3.999,-0.594,7.568,-5.066,-99.670
1.152,3.303,-0.541,13.367,-0.793,-8.423
0.454,1.934,-0.421,27.527,-5.371,64.331
-0.661,0.996,-0.278,56.396,-8.545,94.727
-1.407,-0.200,-0.220,68.726,-4.211,119.324
-0.948,-0.770,-0.230,56.091,-8.179,92.957
-0.099,-0.387,-0.154,26.489,-22.644,15.869
-0.328,0.641,-0.229,11.902,-24.048,-25.696
-0.686,1.157,-0.212,3.479,-13.062,-39.673
-0.462,1.361,-0.182,4.578,-8.240,-33.997
-0.276,1.221,-0.243,5.432,-4.089,-28.992
-0.383,1.156,-0.261,11.292,2.136,-19.836
-0.335,0.973,-0.218,13.000,2.075,-17.029
-0.296,0.785,-0.180,6.165,-3.479,-20.325
-0.414,0.765,-0.169,-0.793,-7.019,-24.963
-0.384,0.782,-0.176,-7.141,-8.057,-28.992
-0.290,0.878,-0.196,-14.099,-8.057,-34.119
-0.382,0.941,-0.210,-17.212,-7.446,-36.255
-0.359,1.011,-0.207,-16.357,-5.005,-36.316
-0.350,0.976,-0.230,-14.587,0.244,-36.926
-0.369,0.947,-0.263,-14.954,5.493,-40.588
-0.296,0.887,-0.254,-14.343,2.563,-39.612
-0.277,0.889,-0.264,-14.404,-2.075,-35.950
-0.325,0.831,-0.300,-18.677,5.798,-46.997
-0.416,0.901,-0.297,-17.273,21.973,-55.908
-0.356,0.905,-0.285,-16.663,28.076,-59.631
-0.261,0.924,-0.277,-17.944,28.198,-60.974
-0.189,0.960,-0.257,-18.921,22.766,-60.608
-0.133,1.002,-0.268,-16.541,18.555,-58.350
-0.135,0.985,-0.303,-13.916,16.296,-56.702
-0.131,0.963,-0.336,-11.597,14.404,-55.908
-0.088,0.946,-0.335,-8.240,12.268,-55.054
-0.089,0.906,-0.369,-6.592,10.010,-53.711
-0.063,0.893,-0.352,-4.944,7.568,-50.903
-0.040,0.896,-0.340,-3.662,3.418,-47.241
-0.046,0.889,-0.337,-3.662,0.305,-44.006

0.068,1.372,-0.493,7.263,38.330,59.326
0.041,1.377,-0.523,6.409,18.799,62.988
-0.072,1.367,-0.509,4.761,7.446,66.284
-0.193,1.359,-0.523,2.625,-0.732,72.876
-0.442,1.358,-0.639,-2.441,-10.986,80.505
-0.821,1.435,-0.793,-6.653,-11.108,85.876
-1.280,1.509,-0.702,-7.385,6.165,98.206
-1.568,1.641,-0.590,-4.700,23.621,111.694
-1.311,1.686,-0.595,-8.423,38.269,116.211
-1.014,1.804,-0.682,-9.827,60.547,120.667
-0.854,1.836,-0.640,-2.991,83.252,124.573
-0.674,1.733,-0.625,3.906,104.126,127.869
-0.490,1.512,-0.573,6.470,114.990,127.869
-0.268,1.377,-0.491,6.897,113.037,120.728
-0.128,1.342,-0.375,8.423,100.708,111.450
-0.063,1.327,-0.269,10.315,84.045,107.300
0.014,1.286,-0.182,12.451,64.514,105.713
0.097,1.154,-0.119,13.306,40.894,102.905
0.177,0.979,-0.078,11.719,13.977,97.351
0.202,0.872,-0.047,10.071,-6.897,87.708
0.174,0.788,-0.047,9.827,-18.677,74.829
0.227,0.702,-0.058,7.507,-24.658,62.622
0.319,0.640,-0.055,5.310,-28.015,48.462
0.432,0.607,-0.050,5.127,-32.104,31.189
0.442,0.509,-0.020,4.333,-36.438,16.846
0.452,0.362,0.003,1.953,-42.236,3.418
0.486,0.307,0.036,-1.038,-51.636,-11.169
0.491,0.229,0.048,-4.089,-65.063,-25.879
0.462,0.181,0.042,-7.812,-79.041,-41.138
0.402,0.189,0.084,-9.644,-90.576,-57.556
0.352,0.201,0.068,-11.047,-99.182,-74.341
0.349,0.193,0.006,-12.329,-106.750,-91.248
0.324,0.194,0.005,-14.709,-112.793,-105.713
0.217,0.226,-0.003,-15.747,-115.234,-117.981
0.127,0.208,-0.022,-15.747,-115.173,-127.991
0.072,0.192,-0.033,-16.113,-113.525,-138.123
-0.004,0.209,-0.030,-15.320,-110.107,-148.132
-0.099,0.240,-0.005,-13.672,-106.689,-156.311
-0.245,0.265,-0.003,-11.414,-102.539,-161.743
-0.335,0.274,0.062,-11.536,-100.647,-161.499
-0.454,0.318,0.085,-12.146,-101.685,-159.363
-0.690,0.359,0.055,-10.437,-102.478,-155.396
-0.916,0.377,0.029,-10.681,-101.196,-148.132
-1.170,0.431,-0.009,-10.254,-96.069,-137.634
-1.433,0.475,-0.015,-7.568,-87.891,-122.559
-1.633,0.462,-0.015,-4.089,-79.285,-104.614
-1.785,0.452,0.005,-0.916,-70.557,-85.999
-1.867,0.445,0.023,1.343,-64.453,-65.796
-1.840,0.436,0.029,3.357,-58.167,-44.861
-1.765,0.439,0.077,6.104,-48.828,-23.560
-1.714,0.422,0.078,7.507,-43.518,0.793
-1.699,0.344,-0.017,4.883,-43.762,24.048
-1.918,0.227,-0.173,-0.488,-47.180,47.852
-2.487,0.315,-0.232,2.808,-45.349,75.439
-2.258,0.461,-0.141,18.555,-38.940,96.191
-0.983,0.413,-0.112,19.043,-35.278,80.322
-0.078,0.651,-0.081,15.503,-22.400,45.715
0.527,0.877,-0.190,21.912,-4.456,20.325
0.310,0.869,-0.466,14.587,6.897,-3.235
-1.340,1.092,-1.148,-15.076,4.517,-3.418
-1.226,2.258,-0.704,4.822,-1.892,17.944
0.119,1.698,-0.118,19.531,12.817,22.705
-0.203,1.376,0.022,11.292,27.832,25.146
-0.762,1.415,-0.060,20.630,30.579,39.917
-0.471,0.987,-0.067,21.362,22.705,42.603
-0.331,0.571,-0.180,15.381,7.263,31.799
-0.450,0.381,-0.229,8.484,-4.822,17.029
-0.464,0.458,-0.240,-0.732,-10.559,-0.549
-0.454,0.714,-0.253,-7.629,-13.306,-11.353
-0.475,0.967,-0.266,-8.301,-10.315,-15.381
-0.458,1.010,-0.307,-6.958,-4.517,-15.503
-0.439,0.974,-0.314,-6.958,1.099,-16.296
-0.427,0.939,-0.291,-8.911,7.874,-19.592
-0.389,0.925,-0.257,-11.536,13.489,-23.254
-0.407,0.924,-0.224,-14.893,15.259,-26.245
-0.392,0.946,-0.224,-17.578,15.198,-28.931
-0.301,0.969,-0.246,-18.555,13.306,-31.433
-0.323,0.906,-0.274,-18.555,10.010,-32.532
-0.365,0.885,-0.298,-19.531,9.155,-32.898
-0.345,0.895,-0.304,-19.409,12.085,-35.034
-0.399,0.940,-0.314,-18.311,15.564,-37.903
-0.437,0.951,-0.286,-16.296,19.653,-38.635
-0.400,1.031,-0.287,-14.404,26.489,-40.344
-0.343,1.027,-0.318,-14.832,31.433,-44.922
-0.338,1.064,-0.312,-11.780,29.907,-45.166
-0.351,1.025,-0.327,-8.606,34.241,-45.593
-0.344,0.996,-0.317,-10.925,43.091,-53.772
-0.283,0.968,-0.318,-13.855,46.692,-62.866
-0.203,1.009,-0.288,-14.160,47.546,-64.148
-0.191,0.993,-0.280,-11.963,45.532,-60.730
-0.174,0.944,-0.241,-8.301,40.222,-55.298
-0.150,0.886,-0.228,-6.409,33.081,-51.392
-0.131,0.843,-0.248,-8.057,26.123,-50.293
-0.080,0.873,-0.257,-11.169,21.057,-49.072
-0.048,0.940,-0.280,-12.390,18.616,-46.631
-0.083,1.005,-0.297,-11.597,17.761,-42.114
-0.090,1.029,-0.287,-8.423,18.005,-34.729
-0.089,0.988,-0.262,-4.028,17.212,-27.588
-0.080,0.881,-0.246,-1.709,14.465,-21.667
-0.113,0.829,-0.213,-0.793,12.878,-17.639
-0.150,0.803,-0.217,-0.183,13.000,-15.015
-0.137,0.810,-0.238,-0.122,13.855,-11.353
-0.128,0.791,-0.269,1.221,15.381,-7.629
-0.088,0.799,-0.283,2.014,15.320,-3.906
-0.027,0.786,-0.261,2.747,11.658,0.610
-0.032,0.794,-0.272,2.869,5.493,5.554
-0.051,0.834,-0.292,2.686,-0.488,10.681
-0.061,0.891,-0.328,3.174,-3.845,14.771
-0.088,0.938,-0.345,4.456,-4.822,18.372
-0.163,0.952,-0.343,6.348,-2.441,21.240
-0.201,0.967,-0.273,9.338,3.113,23.193
-0.157,0.963,-0.245,10.071,6.287,24.170
-0.153,1.018,-0.232,11.047,5.554,24.902
-0.146,1.056,-0.228,11.230,3.174,25.391
-0.193,1.078,-0.247,11.353,-0.305,25.208
-0.225,1.088,-0.235,13.184,-2.136,24.353
-0.273,1.109,-0.280,13.550,-1.038,22.461
-0.268,1.168,-0.266,14.221,4.578,20.508
-0.260,1.221,-0.291,14.465,11.108,18.555
-0.284,1.280,-0.287,14.648,19.043,17.517
-0.276,1.324,-0.282,15.320,28.564,16.479
-0.229,1.339,-0.267,13.367,37.476,14.526
-0.216,1.382,-0.243,10.681,45.227,12.390
-0.192,1.440,-0.220,8.301,52.551,10.254
-0.123,1.499,-0.217,5.859,57.861,8.545
-0.034,1.551,-0.234,3.967,60.486,8.057
0.005,1.591,-0.271,4.700,61.401,9.033
0.065,1.592,-0.296,6.958,62.500,10.986
0.122,1.598,-0.305,9.399,64.636,13.062
0.204,1.601,-0.324,12.085,66.833,15.686
0.281,1.591,-0.367,14.832,66.589,18.433
0.314,1.567,-0.422,17.822,63.232,22.644
0.292,1.553,-0.469,21.667,56.702,29.602
0.287,1.419,-0.482,22.766,46.448,34.851
0.327,1.375,-0.547,20.569,30.396,51.147
0.308,1.371,-0.611,16.235,5.005,63.110
0.206,1.500,-0.627,15.198,-27.222,65.552
-0.030,1.511,-0.653,12.573,-47.791,40.283
-0.381,1.676,-0.683,13.611,-53.650,48.523
-0.964,1.680,-0.860,17.273,-45.959,79.590
-1.365,1.751,-0.808,19.897,-27.039,112.244
-1.418,1.925,-0.661,23.071,-20.813,140.137
-1.396,2.119,-0.647,29.480,-19.104,160.156
-1.227,2.113,-0.606,29.602,-12.085,169.556
-0.992,1.987,-0.630,23.315,-5.188,172.058
-0.845,1.960,-0.597,23.743,4.272,171.509
-0.687,1.838,-0.539,27.710,14.099,169.739
-0.540,1.624,-0.530,30.273,26.855,169.617
-0.387,1.419,-0.462,33.691,33.875,164.490
-0.213,1.268,-0.394,36.194,30.029,157.166
-0.052,1.114,-0.329,36.255,18.982,148.254
0.044,0.968,-0.287,34.119,5.859,136.292
0.139,0.763,-0.264,29.175,-5.737,123.840
0.270,0.662,-0.259,26.611,-12.512,107.849
0.344,0.475,-0.235,23.315,-11.353,91.003
0.399,0.414,-0.195,22.583,-4.272,71.167
0.401,0.365,-0.143,24.658,5.554,48.401
0.446,0.176,-0.121,24.109,12.085,30.396
0.614,0.022,-0.064,21.057,10.620,12.085
0.747,-0.033,-0.016,17.456,0.549,-11.108
0.722,-0.037,0.006,9.949,-14.832,-31.860
0.637,0.037,0.034,4.822,-30.823,-45.837
0.537,0.025,0.040,0.061,-47.363,-58.411
0.478,-0.003,0.007,-5.066,-62.988,-72.815
0.471,-0.024,-0.013,-11.719,-75.989,-87.158
0.442,0.028,-0.044,-16.724,-83.374,-101.318
0.292,0.085,-0.058,-19.104,-84.595,-114.807
0.059,0.086,-0.082,-19.165,-80.627,-126.343
-0.038,0.045,-0.122,-19.836,-74.219,-135.986
-0.064,0.040,-0.078,-23.560,-66.956,-145.020
-0.144,0.117,0.042,-27.649,-61.401,-149.048
-0.305,0.222,0.190,-29.724,-59.570,-145.630
-0.391,0.304,0.329,-29.724,-69.336,-136.108
-0.434,0.362,0.400,-29.846,-91.980,-124.329
-0.644,0.423,0.340,-28.564,-116.699,-111.816
-0.998,0.427,0.139,-26.733,-135.925,-98.389
-1.359,0.365,-0.078,-26.978,-141.846,-82.520
-1.721,0.289,-0.238,-26.245,-128.113,-69.153
-1.943,0.209,-0.289,-25.330,-110.413,-52.429
-1.970,0.149,-0.221,-26.428,-95.032,-29.602
-2.033,0.151,-0.072,-15.259,-58.960,-13.428
-1.922,0.133,0.107,-0.854,-26.733,1.892
-1.710,0.083,0.277,13.550,2.991,18.982
-1.380,-0.005,0.397,22.888,28.442,33.081
-1.050,-0.094,0.479,29.663,41.260,40.466
-1.111,-0.313,0.514,35.828,37.292,41.199
-1.498,-0.477,0.437,41.443,25.452,46.265
-0.721,-0.303,0.296,34.546,6.409,37.415
-0.775,0.192,-0.374,0.549,-26.489,23.437
-1.115,1.350,-0.457,-9.399,-72.205,27.405
-0.119,1.637,-1.340,-31.189,-117.676,23.315
0.170,2.512,-1.377,-39.124,-121.643,-23.132
-0.326,2.347,-1.803,-43.762,-87.830,-22.278
-0.773,2.311,-1.243,-22.705,-34.668,26.306
-0.666,1.751,-0.533,12.390,22.156,49.194
-0.664,1.220,0.040,26.062,60.852,46.692
-0.816,0.893,0.380,34.058,79.651,42.358
-0.736,0.581,0.475,28.748,73.425,26.367
-0.475,0.379,0.335,16.724,48.523,8.301
