aX,aY,aZ,gX,gY,gZ
0.235,0.951,-0.228,-35.461,69.641,124.390
0.357,0.770,-0.091,-27.954,83.862,107.361
0.119,0.518,-0.095,-16.724,82.275,88.806
-0.233,0.110,-0.373,-16.602,66.956,68.481
0.142,0.258,-0.178,-16.418,51.819,45.227
0.520,0.405,-0.088,-14.282,34.485,22.217
0.620,0.540,0.029,-12.207,21.423,-0.671
0.241,0.506,-0.039,-14.343,14.282,-17.334
0.198,0.462,0.020,-11.169,9.277,-27.710
0.504,0.172,0.152,-4.456,12.268,-41.504
0.659,0.121,0.253,5.615,14.526,-62.561
0.550,0.182,0.170,12.207,18.127,-82.581
0.429,0.323,0.181,17.212,20.569,-97.778
0.366,0.361,0.172,21.301,15.930,-111.633
0.171,0.354,0.093,23.193,9.949,-124.268
0.103,0.367,-0.026,25.452,5.188,-137.756
0.080,0.410,-0.046,27.405,0.183,-152.466
0.090,0.469,-0.038,30.273,-6.409,-167.542
0.156,0.503,-0.035,33.325,-13.977,-183.105
0.186,0.531,-0.023,35.583,-22.827,-197.815
0.185,0.607,-0.001,38.025,-29.541,-211.426
0.166,0.669,-0.003,39.063,-33.325,-223.389
0.168,0.771,0.033,40.161,-34.851,-232.849
0.129,0.858,0.038,40.283,-33.691,-238.770
0.071,0.980,0.072,40.771,-30.945,-241.699
0.021,1.046,0.067,42.419,-24.536,-242.981
0.009,1.083,0.025,42.847,-11.597,-245.361
-0.021,1.239,-0.068,44.495,1.221,-250.305
-0.133,1.378,-0.201,47.119,13.916,-255.249
-0.223,1.472,-0.279,48.645,26.245,-258.606
-0.226,1.528,-0.259,48.767,36.194,-261.719
-0.255,1.523,-0.186,36.316,33.508,-272.339
-0.022,1.715,0.003,32.043,27.405,-270.325
-0.018,1.631,-0.121,28.992,50.903,-286.743
0.041,1.895,-0.062,37.720,42.236,-278.564
0.094,2.073,-0.144,59.021,30.273,-250.122
-0.018,1.863,-0.073,48.462,19.653,-245.178
-0.211,1.904,-0.083,33.020,5.615,-246.460
-0.358,1.874,-0.036,24.292,-3.784,-247.009
-0.448,1.821,-0.048,16.785,-12.573,-242.920
-0.540,1.809,-0.130,15.381,-22.644,-229.065
-0.738,1.865,-0.209,15.747,-29.053,-215.576
-0.781,1.687,-0.294,16.235,-33.875,-199.951
-0.746,1.562,-0.326,12.207,-37.720,-182.251
-0.713,1.519,-0.370,10.742,-40.588,-164.368
-0.849,1.403,-0.355,7.690,-35.767,-146.667
-1.014,1.304,-0.309,6.104,-25.330,-124.329
-1.057,1.201,-0.308,4.761,-16.541,-97.900
-1.088,1.134,-0.281,0.977,-9.766,-70.496
-1.081,1.098,-0.266,-1.648,1.160,-40.710
-0.992,1.084,-0.271,-4.272,5.859,-10.376
-0.897,1.081,-0.220,-7.812,4.578,16.296
-0.757,1.076,-0.169,-14.099,-3.174,38.391
-0.664,1.103,-0.120,-20.264,-16.785,55.664
-0.646,1.110,-0.106,-25.146,-33.081,70.374
-0.730,1.129,-0.031,-25.940,-46.875,83.435
-0.602,1.093,-0.085,-31.189,-55.542,91.736
-0.000,1.291,-0.169,-43.945,-57.617,92.041
1.280,1.402,0.073,-29.907,-36.804,73.242
1.722,0.948,0.503,-19.775,-2.991,70.190
0.767,0.927,0.446,-15.442,1.526,80.750
0.177,0.972,0.333,-14.587,-16.724,90.637
-0.411,1.111,0.012,-38.635,-39.856,106.140
-0.747,1.822,-0.143,-50.293,-36.743,120.972
-0.210,1.746,0.279,-32.043,-25.024,116.699
0.157,1.302,-0.144,-34.363,-25.391,104.919
0.560,1.077,0.068,-36.560,-25.940,92.896
0.031,1.159,-0.174,-32.654,-33.386,92.712
0.206,1.151,-0.205,-31.738,-47.485,89.355
0.240,1.041,-0.330,-34.668,-62.744,77.148
0.182,1.119,-0.239,-26.306,-70.068,67.688
-0.097,0.913,-0.217,-23.621,-64.209,63.049
0.062,1.024,-0.043,-7.812,-46.326,56.946
-0.309,0.657,-0.480,-5.005,-22.339,52.856
0.165,1.234,-0.059,-20.386,6.226,59.265
-0.391,1.201,-0.053,-16.785,26.123,61.096
0.144,1.239,0.052,-12.939,39.856,62.744
0.188,0.931,0.034,-16.418,44.983,57.068
0.207,1.016,0.135,-16.296,41.565,54.688
0.082,0.918,-0.023,-19.958,30.396,49.500
0.418,1.004,0.021,-19.409,23.071,40.833
0.106,0.906,-0.167,-22.705,16.663,36.011
0.116,1.080,-0.138,-18.616,13.672,32.959
0.537,0.924,-0.049,-15.503,13.367,27.466
-0.052,0.998,-0.188,-17.273,14.771,30.518
0.257,1.037,-0.056,-10.315,14.465,27.588
0.379,0.849,-0.100,-10.498,18.433,25.696
-0.084,1.012,-0.117,-11.292,19.958,29.968
-0.018,1.055,0.000,-8.484,18.066,26.489
0.702,0.884,-0.010,-5.859,19.409,20.142
-0.039,0.900,-0.218,-14.282,13.123,26.367
-0.377,1.175,0.044,-10.864,13.489,27.649
0.906,0.752,-0.006,-10.254,13.123,17.395
-0.457,0.982,-0.264,-18.494,6.165,27.710
0.113,1.054,-0.074,-10.071,10.864,21.240
0.474,0.869,-0.109,-13.306,8.606,20.935
-0.071,1.081,0.011,-8.667,11.780,24.109
-0.025,0.931,-0.315,-10.193,13.000,22.339
0.260,1.009,-0.025,-6.592,14.404,22.034
0.189,0.983,-0.068,-7.080,15.808,20.935
-0.037,1.019,-0.129,-7.385,16.113,23.010
0.079,0.999,-0.069,-5.920,18.738,22.034
0.212,0.927,-0.148,-8.423,16.724,22.705
-0.113,1.080,0.007,-5.859,16.724,24.353
0.487,0.850,-0.213,-8.484,16.113,19.287
-0.154,1.126,-0.167,-9.216,10.193,25.818
-0.035,0.975,0.047,-7.507,13.550,24.658
0.167,0.946,-0.230,-7.812,9.949,26.123
0.102,0.979,-0.065,-6.836,6.531,26.550
-0.047,0.970,-0.283,-10.437,2.197,27.832
0.135,1.030,0.001,-7.812,3.601,28.564
0.085,1.006,-0.266,-9.338,1.770,30.334
-0.031,1.013,-0.169,-9.094,1.282,33.203
0.225,0.996,0.046,-7.996,3.174,32.288
0.072,0.965,-0.348,-9.094,-0.916,35.645
-0.068,1.061,-0.001,-8.850,-0.854,39.001
0.420,0.968,-0.057,-9.399,-1.648,38.452
-0.111,1.096,-0.270,-10.498,-4.761,44.861
-0.376,1.100,-0.152,-12.390,-3.418,50.659
0.423,1.039,0.026,-6.775,4.395,49.927
0.223,0.986,-0.441,-8.301,-0.122,53.955
-0.876,1.172,-0.215,-12.756,3.174,65.674
0.871,0.960,0.334,-9.399,13.367,59.448
-0.460,1.224,-0.722,-9.705,0.793,69.336
-0.148,1.064,0.369,-17.151,10.986,73.364
0.523,1.189,-0.100,-14.709,4.395,73.059
-0.349,1.141,0.060,-15.808,4.639,78.308
-0.071,1.194,-0.024,-21.179,0.366,79.895
-0.001,1.194,-0.044,-18.372,-3.540,82.031
0.190,1.147,0.030,-22.705,-6.165,83.679
-0.114,1.264,-0.111,-22.400,-9.399,89.661
0.111,1.206,-0.010,-22.827,-8.118,91.675
-0.233,1.231,-0.399,-24.658,-12.268,98.511
0.207,1.234,0.107,-23.804,-3.113,100.647
0.075,1.270,-0.320,-26.550,-4.578,106.934
-0.292,1.372,-0.251,-28.259,1.770,114.807
0.175,1.404,-0.169,-27.771,11.230,117.676
-0.050,1.545,-0.248,-28.320,18.494,126.526
0.124,1.497,-0.128,-30.823,30.945,136.841
0.177,1.576,-0.030,-31.921,37.964,146.790
0.279,1.635,-0.016,-29.419,46.570,150.879
0.203,1.751,-0.159,-33.569,52.490,155.457
0.648,1.898,-0.038,-32.654,61.584,163.879
0.778,1.786,-0.253,-31.494,59.387,177.551
0.492,1.730,-0.209,-34.668,54.688,184.448
0.351,1.643,-0.312,-44.189,51.086,180.908
0.097,1.666,-0.324,-49.438,40.955,178.833
-0.238,1.687,-0.221,-48.645,29.907,175.171
-0.429,1.532,-0.278,-47.424,32.898,170.105
-0.016,1.507,-0.265,-43.884,42.786,157.471
0.290,1.527,-0.305,-37.781,48.828,149.475
0.361,1.281,-0.228,-25.696,59.204,141.235
0.593,0.881,-0.226,-20.996,69.946,123.535
0.497,0.705,-0.037,-13.367,73.853,105.469
-0.141,0.390,-0.329,-8.179,58.105,94.971
-0.250,0.223,-0.195,-3.479,33.875,77.881
0.414,0.317,-0.092,-1.892,10.498,51.880
0.477,0.522,0.024,-5.554,-10.010,32.959
0.552,0.616,-0.091,5.676,-16.846,7.385
0.204,0.401,-0.084,-6.531,-20.874,-4.578
0.098,0.621,0.078,0.244,-21.790,-14.343
0.369,0.299,0.117,9.644,-16.785,-30.884
0.447,0.184,0.120,16.846,-12.817,-50.171
0.418,0.217,0.054,22.217,-9.827,-69.946
0.354,0.323,0.041,27.161,-7.874,-86.731
0.289,0.417,0.033,32.654,-8.911,-100.891
0.220,0.441,0.005,37.231,-12.085,-113.647
0.142,0.457,-0.056,41.016,-15.320,-126.892
0.092,0.458,-0.089,45.593,-15.564,-140.991
0.104,0.460,-0.130,48.340,-15.869,-155.823
0.122,0.491,-0.106,49.683,-18.860,-170.105
0.178,0.553,-0.087,51.392,-24.109,-184.814
0.203,0.599,-0.075,53.406,-30.579,-198.181
0.215,0.669,-0.082,54.993,-36.011,-210.449
0.163,0.740,-0.063,57.739,-37.048,-221.741
0.151,0.796,-0.052,59.387,-34.363,-231.323
0.142,0.869,-0.035,59.082,-29.541,-239.014
0.092,0.970,-0.022,59.509,-22.461,-244.629
0.040,1.046,-0.021,59.448,-13.489,-249.207
0.030,1.119,-0.002,59.387,-4.333,-253.540
0.096,1.179,-0.046,56.580,1.831,-259.705
0.032,1.321,-0.092,54.810,9.583,-265.991
-0.106,1.440,-0.139,49.561,14.832,-276.062
0.014,1.362,-0.172,37.476,9.338,-281.006
0.092,1.628,-0.231,37.109,22.644,-297.119
0.165,1.807,-0.173,37.476,15.137,-303.955
0.270,2.074,-0.152,60.181,-0.916,-273.376
0.030,2.027,-0.138,60.242,-11.658,-267.761
-0.201,2.023,-0.111,57.922,-20.935,-261.108
-0.481,1.941,-0.072,51.697,-21.912,-256.653
-0.611,1.993,-0.126,44.373,-19.409,-256.287
-0.706,2.002,-0.176,37.415,-17.456,-248.779
-0.778,1.979,-0.303,27.405,-13.428,-238.342
-0.778,1.991,-0.377,23.071,-12.756,-223.572
-0.847,1.854,-0.418,17.090,-15.869,-207.336
-0.983,1.616,-0.521,5.127,-20.874,-189.453
-1.072,1.548,-0.560,1.892,-27.100,-168.152
-1.188,1.392,-0.507,-0.122,-28.931,-142.029
-1.376,1.418,-0.459,3.174,-24.963,-110.779
-1.542,1.322,-0.358,9.705,-14.404,-74.036
-1.484,1.129,-0.344,9.033,-9.155,-36.072
-1.182,1.075,-0.409,3.601,-10.132,-1.526
-0.859,1.135,-0.343,-4.761,-18.250,25.696
-0.731,1.140,-0.346,-13.245,-25.452,45.837
-0.680,1.170,-0.258,-18.677,-33.081,60.364
-0.672,1.161,-0.223,-21.851,-40.955,72.754
-0.728,1.195,-0.098,-18.311,-45.166,87.769
-0.416,1.182,0.033,-30.273,-43.762,102.722
0.382,1.511,0.074,-20.935,-25.330,97.900
1.701,1.105,0.542,-13.977,-12.329,78.552
1.419,0.762,0.421,-20.691,8.728,75.562
0.781,0.812,0.482,-21.667,7.996,75.134
-0.310,0.883,-0.090,-40.161,-39.124,87.402
-0.389,1.196,-0.175,-68.909,-56.702,105.103
-0.641,1.919,0.079,-58.777,-45.227,113.586
0.041,1.572,0.283,-37.476,-34.546,103.516
0.421,1.157,0.026,-42.358,-39.124,87.585
0.341,1.209,-0.031,-44.983,-48.706,79.102
0.039,1.240,-0.264,-42.847,-53.589,82.825
0.199,1.176,-0.306,-37.476,-64.758,76.050
-0.035,1.071,-0.359,-36.194,-61.646,70.801
0.068,1.138,0.186,-29.236,-36.560,71.838
-0.151,0.888,-0.291,-26.611,-25.024,73.059
-0.124,0.955,-0.265,-26.428,-10.132,71.411
-0.037,1.049,-0.070,-17.395,7.324,66.895
-0.046,1.128,0.025,-6.592,23.865,63.416
-0.120,0.863,-0.254,-12.573,35.706,61.340
0.444,1.192,0.006,-19.409,38.147,61.951
0.121,1.045,0.027,-25.085,37.048,60.486
0.125,1.057,0.090,-25.391,36.255,62.195
0.584,0.876,0.138,-23.560,29.602,56.763
0.053,0.874,-0.120,-32.471,19.714,56.335
0.390,1.086,0.032,-25.146,13.611,49.927
0.302,0.862,-0.123,-27.283,6.165,45.715
-0.215,1.074,-0.217,-28.564,0.732,50.598
0.269,1.066,-0.008,-19.104,0.671,44.495
0.707,0.830,-0.098,-17.273,0.366,38.025
-0.588,0.986,-0.379,-23.743,-2.808,47.302

0.303,0.514,-0.040,-13.000,56.763,84.900
-0.334,0.279,-0.419,-13.367,48.218,70.374
-0.463,0.264,-0.334,-10.315,41.992,55.420
0.080,0.433,-0.148,-7.202,36.560,34.668
0.223,0.540,0.013,-10.071,27.710,20.569
0.235,0.850,0.012,3.540,30.151,3.906
0.051,0.271,-0.002,8.911,34.241,-10.498
0.056,0.320,0.040,5.188,26.917,-17.456
0.224,0.339,0.171,13.977,25.940,-32.288
0.325,0.197,0.134,21.973,25.391,-48.950
0.388,0.196,0.083,26.855,20.691,-67.566
0.417,0.239,0.041,29.846,13.489,-86.365
0.388,0.336,0.049,33.203,3.723,-102.051
0.311,0.353,-0.000,35.522,-5.798,-116.333
0.205,0.372,-0.038,37.537,-13.672,-128.723
0.131,0.415,-0.070,39.612,-21.240,-140.991
0.092,0.454,-0.073,43.091,-28.259,-153.198
0.094,0.458,-0.079,44.189,-36.682,-165.894
0.107,0.510,-0.054,45.715,-44.128,-179.749
0.069,0.554,-0.053,47.546,-47.302,-193.726
0.083,0.618,-0.061,48.523,-47.913,-205.811
0.103,0.641,-0.057,48.584,-47.302,-218.872
0.136,0.736,-0.046,52.307,-46.814,-228.699
0.130,0.782,-0.064,53.345,-43.030,-235.840
0.116,0.869,-0.067,53.589,-35.767,-242.615
0.072,0.983,-0.070,55.359,-23.743,-247.314
0.051,1.057,-0.062,56.641,-12.390,-250.244
0.063,1.147,-0.091,57.434,-4.272,-254.028
-0.052,1.277,-0.132,59.265,7.629,-257.935
-0.166,1.385,-0.190,62.500,23.376,-260.437
-0.150,1.473,-0.260,63.354,36.377,-263.794
-0.063,1.560,-0.274,60.486,44.617,-268.188
0.009,1.660,-0.246,55.969,46.631,-273.682
0.055,1.784,-0.172,50.720,43.762,-277.100
0.072,1.916,-0.135,46.814,34.668,-278.564
-0.071,1.999,-0.111,43.335,25.330,-276.611
-0.269,2.040,-0.058,37.537,16.479,-270.020
-0.496,2.030,-0.059,35.034,10.864,-259.521
-0.725,2.040,-0.051,30.701,10.193,-248.535
-0.782,1.983,-0.125,27.405,7.446,-235.168
-0.883,1.930,-0.199,23.682,4.028,-218.018
-0.914,1.883,-0.308,18.982,-0.305,-199.280
-0.957,1.819,-0.455,15.564,-12.817,-177.185
-1.129,1.661,-0.507,12.390,-23.560,-152.222
-1.361,1.420,-0.529,7.507,-26.978,-125.854
-1.392,1.275,-0.467,2.014,-27.649,-97.656
-1.331,1.228,-0.385,-2.014,-26.489,-67.566
-1.182,1.223,-0.375,-3.235,-26.489,-36.011
-1.103,1.183,-0.303,-3.418,-27.466,-4.395
-1.029,1.158,-0.331,-5.981,-29.419,23.621
-1.031,1.128,-0.327,-8.667,-27.527,44.189
-0.985,1.159,-0.260,-7.385,-32.166,65.979
-0.742,1.170,-0.281,-17.334,-47.546,84.717
-0.874,1.502,-0.131,-20.752,-46.082,101.440
-0.177,1.266,0.056,-19.043,-30.090,98.877
1.330,1.065,0.409,-17.761,-17.456,80.017
1.606,0.892,0.583,-18.066,8.667,73.425
0.912,0.952,0.264,-17.700,3.723,79.590
0.326,0.906,0.073,-35.339,-17.639,85.266
-0.721,1.287,-0.344,-63.721,-34.790,96.619
-0.536,1.856,0.040,-42.603,-26.917,99.731
0.150,1.361,0.023,-31.006,-21.301,90.332
0.743,1.015,-0.011,-35.950,-27.954,76.965
0.025,1.110,-0.259,-36.743,-38.208,78.125
-0.034,1.207,-0.187,-30.090,-43.884,78.979
0.205,1.051,-0.172,-28.503,-55.115,68.970
0.135,0.946,-0.340,-30.029,-58.167,61.401
-0.110,1.059,-0.198,-25.146,-48.828,61.096
0.045,0.999,0.005,-18.738,-33.325,60.181
0.023,1.028,-0.118,-7.385,-21.179,52.856
-0.016,0.751,-0.083,-22.217,1.160,53.040
0.198,1.152,0.071,-18.738,14.160,54.443
-0.219,1.114,-0.014,-19.592,23.804,54.016
0.435,1.065,0.139,-16.296,28.381,49.438
-0.059,0.960,-0.023,-26.733,27.649,48.828
-0.132,1.151,-0.025,-27.649,26.489,50.354
0.798,0.986,0.227,-20.996,21.851,38.086
-0.060,0.816,-0.215,-34.180,13.550,38.879
-0.390,1.269,-0.182,-27.222,10.742,39.734
1.071,0.846,0.021,-19.226,6.104,24.719
-0.805,1.014,-0.393,-33.325,7.019,32.349
0.589,1.184,0.014,-13.611,13.611,26.062
0.099,0.796,-0.240,-23.193,18.250,24.414
0.099,1.111,0.026,-14.709,23.193,27.283
0.111,0.922,-0.124,-18.127,22.583,20.508
0.210,1.042,-0.026,-13.672,23.010,19.836
0.274,0.945,-0.069,-15.320,18.188,17.212
0.060,1.001,-0.030,-15.076,15.076,16.235
0.326,0.956,-0.030,-12.207,12.329,13.000
-0.188,0.942,-0.291,-15.381,10.376,14.832
0.452,1.016,0.049,-7.812,14.648,9.949
0.079,0.906,-0.225,-13.733,11.658,13.184
-0.199,1.059,-0.195,-10.071,12.878,16.785
0.335,0.948,-0.029,-7.935,13.916,15.137
0.001,1.009,-0.197,-8.057,14.954,18.066
0.156,0.943,-0.229,-8.057,15.076,17.212
0.001,1.064,-0.083,-6.287,16.357,20.325
0.216,0.948,-0.134,-6.531,18.982,19.897
0.020,1.023,-0.109,-7.690,18.616,24.048
0.113,0.983,-0.027,-5.554,20.691,23.926
0.433,0.898,-0.149,-7.141,18.860,23.376
-0.098,1.036,-0.117,-8.606,15.869,27.649
0.235,0.953,-0.001,-7.446,16.479,25.452
0.228,0.957,-0.230,-9.583,12.512,26.245
-0.266,1.025,-0.246,-11.108,10.254,30.396
0.065,1.029,0.074,-7.996,12.695,29.358
0.577,0.942,-0.079,-6.775,12.512,25.146
-0.389,1.023,-0.535,-12.817,9.521,31.982
-0.219,1.084,0.295,-7.507,17.151,34.058
0.696,0.859,-0.311,-10.437,13.184,30.823
-0.669,1.166,-0.250,-10.925,12.451,42.053
0.432,0.878,0.089,-14.587,13.916,38.330
0.069,1.111,-0.411,-9.644,11.292,44.312
0.102,0.891,-0.028,-13.367,13.611,46.814
0.080,1.036,-0.043,-13.184,9.644,51.758
0.087,0.995,-0.167,-12.268,10.803,52.368
0.090,1.073,-0.242,-14.343,7.935,57.068
-0.023,1.089,-0.088,-14.954,8.850,60.181
0.212,1.092,-0.016,-12.817,8.789,63.232
-0.402,1.105,-0.283,-13.672,8.545,68.542
0.495,1.012,0.158,-13.611,7.568,67.139
-0.256,1.144,-0.361,-14.709,0.122,73.181
-0.204,1.115,0.152,-16.968,2.991,77.515
0.114,1.217,-0.146,-13.367,-1.953,78.979
-0.114,1.130,-0.062,-14.404,-0.854,83.435
-0.100,1.187,-0.228,-18.188,-3.601,85.632
0.001,1.221,-0.040,-16.602,-0.366,88.867
-0.101,1.224,-0.194,-18.066,-0.183,91.003
-0.180,1.261,-0.093,-16.541,5.981,95.642
0.213,1.269,0.066,-15.442,8.179,96.252
-0.167,1.276,-0.334,-16.602,5.310,100.708
-0.037,1.338,-0.052,-16.113,12.024,103.271
0.199,1.358,-0.176,-13.916,16.113,104.980
-0.226,1.401,-0.283,-16.113,19.836,115.051
-0.013,1.474,0.087,-15.930,28.564,122.559
0.472,1.513,0.101,-13.550,33.447,125.549
-0.002,1.573,-0.335,-20.630,29.419,137.329
0.030,1.803,0.179,-20.874,32.898,147.400
0.745,1.714,0.013,-21.118,37.109,149.597
0.149,1.821,-0.338,-26.184,34.851,166.077
0.772,1.601,0.060,-33.203,33.997,172.180
0.515,1.623,-0.123,-38.940,25.635,171.997
0.193,1.603,-0.044,-43.884,23.071,172.668
0.074,1.650,-0.180,-45.105,13.428,170.959
-0.041,1.598,-0.224,-40.283,-0.122,171.631
-0.114,1.456,-0.261,-38.330,-11.292,170.654
0.094,1.360,-0.311,-38.940,-20.630,161.743
0.319,1.383,-0.190,-33.813,-17.090,150.269
0.418,1.063,-0.182,-26.245,-6.897,135.620
0.327,0.783,-0.099,-23.071,11.353,116.638
0.406,0.657,-0.033,-17.090,30.945,96.985
-0.047,0.408,-0.295,-15.747,36.682,81.482
-0.456,0.244,-0.318,-15.869,35.095,69.763
0.110,0.453,-0.194,-8.484,38.208,48.340
0.411,0.632,0.000,-11.658,33.447,34.058
0.326,0.992,-0.016,0.244,34.607,13.855
0.090,0.306,-0.080,7.935,44.617,-7.385
0.052,0.263,-0.057,-0.549,39.551,-16.357
0.407,0.424,0.108,6.897,41.199,-32.166
0.501,0.341,0.121,17.090,41.382,-50.415
0.524,0.283,0.054,24.170,36.499,-69.458
0.474,0.323,-0.003,29.297,32.410,-89.111
0.468,0.385,-0.029,32.593,25.269,-107.239
0.398,0.447,-0.042,35.522,19.165,-123.413
0.275,0.486,-0.081,36.621,12.573,-138.062
0.184,0.547,-0.108,38.879,7.629,-151.917
0.129,0.588,-0.113,43.091,4.517,-164.734
0.141,0.606,-0.090,45.898,2.319,-178.406
0.162,0.633,-0.082,48.523,-0.427,-192.566
0.174,0.660,-0.107,49.316,-3.113,-206.360
0.168,0.701,-0.132,49.255,-3.723,-220.276
0.181,0.739,-0.156,48.523,-0.977,-232.117
0.193,0.809,-0.137,46.692,6.714,-240.601
0.131,0.943,-0.113,45.227,14.893,-247.070
0.054,1.047,-0.075,45.837,24.353,-251.709
0.039,1.097,-0.121,44.495,34.668,-254.761
0.023,1.167,-0.204,40.588,43.274,-259.949
-0.074,1.306,-0.212,38.452,49.500,-265.076
-0.058,1.401,-0.215,36.194,53.101,-268.066
-0.030,1.482,-0.229,30.090,51.514,-272.644
0.049,1.593,-0.222,23.987,42.297,-276.794
0.144,1.718,-0.215,19.165,27.832,-280.518
0.102,1.812,-0.194,10.071,12.695,-283.569
-0.071,1.905,-0.226,3.662,0.610,-282.593
-0.320,1.895,-0.244,-0.366,-7.263,-278.687
-0.491,1.892,-0.206,-4.456,-14.160,-273.010
-0.680,1.921,-0.166,-5.798,-14.648,-263.977
-0.824,1.953,-0.179,-7.202,-15.137,-253.784
-0.907,1.961,-0.240,-7.324,-14.160,-240.662
-1.045,1.992,-0.274,-5.676,-8.911,-223.328
-1.088,1.970,-0.286,-1.465,-6.592,-204.712
-1.092,1.816,-0.343,2.686,-7.263,-179.749
-1.179,1.552,-0.398,4.211,-14.160,-153.137
-1.180,1.337,-0.355,-0.610,-23.010,-127.991
-1.191,1.336,-0.320,-5.371,-31.128,-103.027
-1.302,1.272,-0.266,-9.094,-35.828,-75.562
-1.357,1.250,-0.191,-13.123,-41.138,-46.448
-1.375,1.200,-0.095,-14.893,-41.443,-15.320
-1.306,1.177,-0.072,-16.479,-43.213,17.029
-1.118,1.181,-0.128,-16.541,-53.894,46.570
-0.937,1.136,-0.076,-19.897,-63.538,66.284
-0.767,1.251,0.037,-20.264,-81.238,87.830
-0.601,1.307,0.077,-30.273,-91.553,104.919
0.806,1.338,0.225,-25.818,-88.074,85.266
2.151,0.953,0.742,-17.517,-59.387,62.744
1.347,0.851,0.400,-19.226,-26.489,72.815
0.004,0.799,-0.004,-25.024,-30.579,90.332
-0.305,1.058,-0.267,-47.791,-40.344,107.544
-0.507,1.687,-0.125,-57.129,-40.344,116.333
-0.424,1.811,0.325,-36.438,-20.447,118.958
0.160,1.203,-0.227,-36.804,-24.597,112.915
0.660,1.026,-0.449,-57.129,-62.744,101.929
0.482,1.291,-0.578,-53.284,-88.196,100.403
-0.013,1.385,-0.201,-29.907,-88.989,97.351
-0.131,1.267,0.185,-8.240,-72.815,88.440
-0.283,0.958,0.153,-1.770,-57.678,85.876
-0.237,0.545,-0.345,-32.471,-45.410,84.595
0.187,1.157,0.056,-29.114,-26.489,75.195
-0.422,1.043,-0.149,-20.874,-2.563,73.853
0.147,1.209,-0.056,-12.695,12.573,69.519
0.110,0.954,-0.117,-18.494,20.752,60.913
-0.262,1.107,-0.113,-21.362,20.386,61.829
0.455,1.140,0.321,-10.681,16.479,53.528
0.522,0.719,0.077,-21.729,5.920,44.373
-0.682,1.059,-0.358,-31.006,1.709,51.086
0.871,1.171,0.238,-10.376,0.671,37.476
-0.244,0.760,-0.440,-26.611,-11.108,37.048
-0.004,1.369,-0.029,-14.954,-2.808,36.133
0.515,0.775,-0.127,-14.160,-1.770,27.893
-0.121,1.069,-0.066,-13.733,6.897,32.227
0.055,0.904,-0.281,-11.230,12.817,27.710
0.218,0.990,0.042,-10.620,15.442,25.391
0.226,0.953,-0.047,-9.827,15.625,21.790
-0.016,0.963,-0.105,-12.024,13.306,21.423
0.131,0.990,0.016,-9.827,15.015,18.738
0.237,0.893,-0.106,-12.085,7.812,18.311
-0.064,1.062,-0.004,-11.108,9.094,18.311
0.480,0.811,-0.159,-11.475,7.202,13.367

0.185,0.932,-0.151,-16.541,8.545,44.250
0.035,1.072,-0.164,-16.785,7.202,51.025
0.260,0.987,-0.125,-15.564,6.714,54.688
0.044,1.016,-0.200,-15.625,4.639,61.096
0.073,1.016,-0.098,-15.015,7.568,62.439
0.374,1.010,-0.200,-13.855,5.310,63.843
-0.212,1.107,-0.221,-16.479,5.127,70.007
0.305,1.032,0.091,-15.747,8.850,69.580
-0.022,1.099,-0.313,-14.038,2.869,74.646
-0.408,1.073,-0.179,-20.203,1.526,78.918
0.341,1.154,0.156,-15.503,6.897,78.125
0.341,1.079,-0.311,-11.963,0.916,77.881
-1.002,1.172,-0.471,-22.583,-1.160,87.036
0.729,1.121,0.500,-17.090,13.245,84.595
-0.344,1.254,-0.871,-12.695,-1.404,91.736
-0.311,1.162,0.322,-23.682,11.658,95.154
0.416,1.324,-0.263,-18.921,8.667,97.656
-0.177,1.288,-0.015,-19.409,13.000,105.164
-0.132,1.312,-0.138,-27.039,13.000,108.521
0.081,1.374,-0.037,-23.499,12.146,113.525
0.091,1.347,-0.050,-28.992,11.047,117.371
-0.048,1.437,-0.170,-32.288,11.292,122.742
0.122,1.423,0.005,-34.424,18.799,127.197
0.050,1.422,-0.135,-37.659,22.827,132.874
0.335,1.567,0.132,-37.964,29.724,135.376
0.109,1.637,-0.168,-41.931,31.799,139.648
0.165,1.801,-0.040,-45.532,34.607,150.146
0.583,1.922,-0.024,-44.312,37.598,156.067
0.476,1.918,-0.073,-44.067,45.288,164.368
0.461,1.745,-0.155,-46.387,53.711,175.232
0.228,1.739,-0.172,-49.377,60.791,182.556
0.095,1.701,-0.128,-51.392,61.035,183.777
-0.063,1.699,-0.119,-50.415,57.068,184.814
-0.125,1.627,-0.112,-44.678,50.476,183.105
-0.018,1.482,-0.333,-41.809,37.292,175.476
0.114,1.507,-0.300,-36.316,25.208,163.086
0.181,1.383,-0.061,-26.672,24.719,147.644
0.394,1.097,-0.100,-23.071,29.236,129.211
0.424,0.893,-0.064,-20.569,38.208,113.159
0.302,0.729,-0.100,-15.564,42.297,99.304
-0.160,0.439,-0.273,-13.000,42.358,86.670
-0.500,0.181,-0.331,-11.353,38.635,73.120
-0.009,0.367,-0.292,-9.155,34.241,53.772
0.188,0.540,-0.004,-13.672,24.658,38.147
0.128,0.775,-0.105,0.427,26.367,16.418
-0.061,0.301,-0.072,-2.625,24.841,5.554
0.072,0.487,0.025,0.854,23.499,-4.395
0.226,0.341,0.152,11.292,26.550,-19.531
0.314,0.230,0.112,19.043,26.550,-35.034
0.343,0.219,0.056,23.987,22.156,-53.040
0.379,0.275,0.023,27.100,13.855,-70.557
0.366,0.336,0.008,31.128,4.089,-86.792
0.287,0.338,-0.000,33.081,-4.395,-101.501
0.197,0.372,-0.042,34.912,-11.841,-115.112
0.120,0.423,-0.050,37.842,-18.738,-128.479
0.053,0.445,-0.055,40.466,-23.437,-141.174
0.053,0.485,-0.056,42.969,-28.625,-154.114
0.041,0.535,-0.047,45.593,-33.020,-166.626
0.019,0.554,-0.057,47.485,-35.950,-179.077
0.047,0.605,-0.078,48.889,-37.659,-191.162
0.065,0.655,-0.080,52.246,-37.537,-202.393
0.053,0.707,-0.103,54.810,-34.851,-213.013
0.055,0.764,-0.105,56.274,-30.762,-222.290
0.088,0.818,-0.108,57.251,-26.855,-230.591
0.078,0.888,-0.108,58.716,-21.606,-238.037
0.053,0.929,-0.099,59.448,-14.465,-244.629
0.032,0.999,-0.088,60.364,-5.676,-249.512
0.026,1.073,-0.088,60.791,5.127,-254.333
0.046,1.179,-0.091,61.157,15.259,-258.545
-0.010,1.303,-0.095,61.768,23.315,-263.062
-0.084,1.374,-0.132,59.570,30.396,-267.029
-0.117,1.492,-0.176,58.777,37.720,-270.630
-0.144,1.577,-0.186,57.068,44.128,-273.926
-0.149,1.660,-0.183,55.115,52.795,-276.794
-0.043,1.759,-0.156,51.453,55.420,-278.381
-0.002,1.852,-0.144,46.082,50.659,-279.968
-0.063,1.945,-0.154,39.490,43.152,-281.494
-0.185,2.009,-0.173,35.522,37.598,-277.100
-0.400,1.965,-0.194,30.457,34.119,-268.066
-0.540,1.924,-0.254,23.682,32.715,-256.470
-0.617,1.916,-0.246,16.174,28.564,-242.371
-0.755,1.960,-0.219,12.512,24.170,-224.548
-0.856,1.949,-0.170,10.986,21.179,-205.444
-0.911,1.837,-0.200,12.146,12.451,-182.739
-0.986,1.591,-0.268,10.132,2.258,-157.776
-1.052,1.423,-0.320,3.601,-5.310,-132.812
-1.222,1.364,-0.374,-0.549,-9.399,-105.286
-1.383,1.212,-0.357,-5.249,-9.888,-73.547
-1.360,1.162,-0.311,-11.108,-10.437,-38.696
-1.222,1.120,-0.245,-14.893,-16.113,-2.869
-1.030,1.128,-0.212,-17.761,-25.391,30.151
-0.873,1.149,-0.212,-19.592,-37.292,57.983
-0.793,1.140,-0.210,-21.851,-49.866,79.285
-0.776,1.130,-0.209,-23.621,-59.937,94.849
-0.316,1.173,-0.088,-21.912,-66.162,94.971
0.894,1.116,0.164,-18.433,-69.336,77.515
1.990,1.121,0.205,-23.437,-54.749,63.049
1.620,0.970,0.439,-14.160,-27.283,63.721
0.483,0.793,0.218,-17.944,-33.386,77.942
-0.153,0.958,0.109,-22.583,-37.720,89.050
-0.345,1.171,0.073,-32.837,-27.405,99.609
-0.555,1.340,-0.132,-37.292,-20.508,110.718
0.187,1.369,0.391,-37.720,-9.460,109.009
-0.230,1.245,-0.141,-52.734,-19.897,102.966
0.229,1.272,-0.174,-53.284,-21.606,91.125
0.110,1.272,-0.151,-46.265,-26.367,84.778
0.156,1.307,-0.082,-34.302,-29.663,86.182
0.233,1.155,-0.104,-29.480,-34.302,85.327
0.420,1.023,-0.205,-33.142,-47.607,78.674
0.224,1.040,-0.348,-31.799,-63.232,73.425
0.105,1.083,-0.178,-21.790,-56.641,66.772
-0.231,1.008,-0.200,-19.470,-37.476,63.599
0.136,1.097,0.046,-3.723,-18.188,56.030
-0.264,0.604,-0.452,-24.353,-0.549,57.678
0.038,1.450,0.012,-19.043,13.794,64.087
0.110,1.013,0.011,-19.470,26.855,59.082
0.118,1.067,0.084,-22.156,35.034,58.411
0.066,0.966,-0.026,-25.330,30.823,53.711
0.321,1.018,0.042,-24.292,24.658,47.058
0.137,0.945,-0.115,-25.391,20.264,43.030
0.155,1.033,-0.098,-20.447,16.357,38.757
0.505,0.925,-0.068,-17.395,13.672,30.334
-0.125,1.015,-0.161,-19.470,12.939,32.654
0.309,1.040,-0.044,-11.902,13.550,27.466
0.294,0.851,-0.142,-14.771,14.587,25.024
-0.132,1.054,-0.172,-15.442,13.794,29.175
0.176,1.051,-0.005,-9.399,17.090,25.146
0.715,0.815,0.001,-10.437,16.968,19.409
-0.432,0.955,-0.368,-19.958,11.536,28.381
0.053,1.192,0.137,-8.301,16.846,24.292
0.741,0.641,-0.261,-15.686,11.841,20.508
-0.570,1.166,-0.063,-15.869,12.268,31.006
0.494,0.909,-0.144,-12.085,15.503,20.203
0.146,0.964,-0.179,-13.733,12.451,26.367
0.113,0.978,-0.054,-11.047,15.015,25.269
0.114,1.027,-0.085,-12.390,12.329,24.475
0.183,0.977,-0.136,-9.949,13.306,24.292
0.180,0.989,-0.156,-10.864,13.245,25.330
-0.022,1.054,-0.060,-8.972,14.709,26.733
0.233,0.936,-0.033,-8.362,17.517,25.085
-0.184,0.990,-0.317,-10.193,15.808,29.358
0.445,0.940,0.148,-5.798,19.653,24.780
0.043,0.960,-0.368,-11.597,12.817,28.381
-0.205,1.020,-0.121,-9.644,13.123,31.555
0.269,0.940,-0.009,-9.583,12.878,29.175
-0.028,1.003,-0.229,-9.460,9.155,31.189
0.080,0.953,-0.167,-11.475,8.972,29.114
-0.097,1.049,-0.115,-10.376,8.911,31.311
0.111,0.969,-0.122,-10.071,10.620,29.541
-0.023,1.033,-0.188,-10.315,9.277,31.128
0.033,0.981,-0.015,-10.437,11.169,28.992
0.272,0.934,-0.223,-11.230,10.132,26.428
-0.188,1.062,-0.183,-11.353,7.385,29.419
0.222,0.939,-0.006,-10.803,8.728,26.489
0.071,0.982,-0.353,-11.169,5.066,27.710
-0.370,1.015,-0.252,-13.245,3.174,32.837
0.182,0.979,0.108,-10.681,7.751,31.860
0.511,0.928,-0.237,-10.437,6.104,28.992
-0.677,1.084,-0.553,-15.930,0.977,40.527
0.139,1.021,0.405,-13.123,13.184,41.687
0.391,0.990,-0.579,-13.489,3.784,41.809
-0.743,1.221,-0.076,-13.550,7.324,55.725
0.705,0.923,0.108,-19.226,8.911,51.575
-0.311,1.256,-0.444,-12.268,5.127,61.035
-0.020,0.944,0.047,-19.775,8.240,63.416
0.221,1.202,-0.038,-17.273,3.845,66.589
0.073,1.086,0.004,-18.311,3.052,69.824
-0.174,1.176,-0.204,-20.691,-2.136,75.012
-0.006,1.151,-0.012,-20.325,-2.502,78.857
0.129,1.187,-0.183,-19.653,-5.310,82.581
-0.190,1.229,-0.081,-19.226,-1.587,89.233
0.209,1.177,-0.274,-20.142,-3.784,91.370
-0.388,1.284,-0.489,-22.278,-2.869,102.173
0.172,1.249,0.136,-22.522,7.935,105.957
-0.083,1.306,-0.395,-20.935,9.033,112.854
-0.054,1.299,-0.036,-23.926,18.372,119.446
-0.132,1.408,-0.213,-26.672,17.639,125.488
0.130,1.446,-0.080,-27.161,22.461,129.517
-0.025,1.551,-0.171,-30.579,27.527,135.193
0.116,1.628,0.065,-30.212,40.710,142.029
0.386,1.598,-0.013,-32.349,47.424,150.940
0.467,1.682,0.012,-37.903,45.776,161.255
0.759,1.739,0.148,-41.748,41.687,162.659
0.537,1.767,-0.092,-48.584,38.940,168.579
0.341,1.761,-0.114,-52.368,39.185,177.246
0.380,1.734,-0.011,-52.917,40.894,176.819
0.287,1.597,-0.126,-55.908,34.729,175.659
-0.303,1.633,-0.182,-54.565,24.658,181.152
-0.542,1.589,-0.191,-49.072,16.113,183.472
-0.485,1.491,-0.372,-49.255,11.414,175.964
-0.266,1.772,-0.347,-40.039,8.423,163.757
0.127,1.608,-0.201,-24.048,8.240,150.085
0.392,1.189,-0.123,-21.545,12.817,130.859
0.552,1.014,-0.068,-15.442,23.437,112.366
0.502,0.777,-0.031,-4.883,26.917,95.215
0.105,0.481,-0.226,-2.319,17.273,78.430
-0.359,0.236,-0.506,-0.244,1.831,63.965
-0.412,0.182,-0.319,-3.357,-7.751,54.077
0.079,0.428,-0.109,0.183,-9.155,35.461
0.164,0.442,-0.089,2.014,-6.470,16.724
0.254,0.639,0.011,7.080,-4.089,6.653
0.157,0.325,-0.096,20.752,10.193,-13.977
0.000,0.221,0.033,16.479,11.536,-18.372
0.098,0.333,0.035,25.940,12.085,-29.724
0.167,0.251,0.034,35.889,19.470,-45.288
0.255,0.211,-0.060,42.603,22.217,-60.608
0.320,0.220,-0.086,48.096,23.071,-78.247
0.249,0.266,-0.038,51.636,22.400,-93.750
0.175,0.330,-0.107,54.138,19.165,-106.812
0.180,0.374,-0.181,56.335,13.794,-118.774
0.161,0.389,-0.168,58.167,9.033,-131.104
0.118,0.414,-0.159,59.570,2.380,-143.738
0.099,0.453,-0.120,61.096,-3.357,-155.701
0.116,0.501,-0.108,63.049,-7.812,-168.213
0.105,0.545,-0.089,64.880,-11.108,-180.664
0.081,0.603,-0.081,67.078,-12.451,-194.092
0.096,0.667,-0.088,68.848,-14.221,-206.604
0.115,0.735,-0.080,69.092,-15.808,-218.140
0.140,0.812,-0.089,68.848,-18.860,-229.431
0.179,0.889,-0.125,67.261,-22.888,-239.624
0.162,0.951,-0.122,64.270,-23.987,-247.864
0.145,1.045,-0.135,60.120,-21.484,-254.272
0.071,1.172,-0.089,58.472,-15.686,-259.888
0.040,1.287,-0.080,58.167,-9.338,-263.672
0.041,1.374,-0.066,59.143,-2.625,-267.151
0.076,1.453,-0.158,56.030,-1.038,-271.851
0.042,1.589,-0.232,53.406,-1.587,-276.062
-0.020,1.696,-0.263,50.903,-0.488,-278.564
-0.016,1.836,-0.266,49.072,1.282,-279.419
0.050,1.936,-0.333,46.631,-3.967,-282.043
0.048,1.992,-0.290,44.006,-6.836,-281.494
-0.073,1.966,-0.323,36.438,-7.080,-279.419
-0.197,2.004,-0.338,30.701,-6.287,-273.926
-0.398,1.966,-0.354,24.109,-3.418,-265.076
-0.604,1.939,-0.359,16.479,-0.671,-255.371
-0.765,1.902,-0.414,8.606,3.052,-244.080
-0.862,1.902,-0.455,7.141,10.925,-225.525
-0.974,1.840,-0.470,9.094,13.855,-203.308

-1.362,1.363,-0.517,1.038,-7.385,-124.878
-1.661,1.226,-0.473,0.427,1.038,-87.830
-1.649,1.056,-0.366,-3.662,5.798,-44.556
-1.228,1.110,-0.307,-8.789,0.122,-3.845
-0.879,1.168,-0.202,-8.972,-8.850,30.396
-0.651,1.169,-0.284,-12.146,-19.775,53.650
-0.629,1.200,-0.280,-13.977,-32.837,71.106
-0.692,1.141,-0.237,-16.785,-48.645,83.862
-0.657,1.083,-0.243,-22.217,-61.157,93.872
-0.422,1.135,-0.148,-22.705,-67.505,93.201
0.742,1.208,0.289,-12.878,-61.218,73.547
1.667,0.895,0.393,-21.423,-57.739,63.171
1.255,1.109,0.352,-19.836,-34.607,64.453
0.944,0.881,0.437,-14.648,-12.268,65.247
0.104,0.865,0.401,-24.292,-16.357,72.815
-0.658,1.127,-0.099,-34.912,-32.837,86.792
-0.097,1.269,0.072,-43.213,-37.354,88.440
-0.035,1.192,-0.015,-60.303,-38.818,88.745
0.238,1.410,0.305,-58.838,-33.386,88.745
-0.282,1.376,0.108,-48.096,-25.452,89.355
-0.163,1.267,-0.001,-40.771,-12.939,86.853
0.052,1.179,-0.066,-36.255,-4.822,84.412
0.393,1.094,-0.175,-40.222,-7.324,81.970
0.441,1.037,-0.400,-46.265,-28.564,80.688
0.461,1.101,-0.335,-43.945,-42.480,76.233
0.084,1.113,-0.270,-33.875,-41.504,71.960
0.268,1.003,0.039,-21.606,-31.189,65.063
-0.032,0.903,-0.191,-13.489,-28.625,60.242
-0.260,0.739,-0.410,-20.935,-17.273,58.777
0.058,1.150,-0.117,-26.672,-4.944,59.570
0.041,1.149,-0.003,-21.484,7.141,55.786
-0.010,1.087,-0.099,-23.865,16.235,58.960
0.273,1.088,0.082,-21.057,21.240,57.373
0.093,1.006,0.037,-25.330,19.775,57.068
0.142,1.025,0.010,-23.193,17.334,52.185
0.503,0.849,-0.044,-24.414,14.526,42.358
-0.114,1.001,-0.152,-29.297,9.888,41.565
0.448,1.121,-0.015,-18.799,9.277,33.997
0.129,0.872,-0.130,-23.743,8.789,32.776
-0.264,1.088,-0.245,-22.217,8.423,36.377
0.343,1.072,0.001,-13.123,14.771,29.602
0.583,0.813,-0.115,-15.869,17.395,26.917
-0.744,1.101,-0.328,-21.118,18.066,36.987
0.585,1.102,0.238,-5.371,22.705,26.367
0.179,0.693,-0.475,-20.569,15.137,26.489
-0.279,1.200,0.047,-14.709,17.151,26.062
0.666,0.816,-0.118,-14.832,13.733,15.686
-0.144,1.055,-0.107,-14.832,13.367,20.996
0.089,0.912,-0.338,-14.099,13.428,16.418
0.306,1.034,-0.003,-11.353,14.587,17.029
0.263,0.927,-0.110,-10.315,14.404,15.076
0.015,0.994,-0.241,-10.742,13.367,16.113
0.117,1.023,-0.083,-8.179,13.672,15.198
0.263,0.936,-0.142,-9.277,13.306,15.381
-0.193,1.156,-0.027,-6.042,17.273,17.883
0.558,0.794,-0.282,-7.812,15.564,13.184
-0.177,1.082,-0.150,-9.338,15.869,19.470
0.047,0.982,-0.077,-7.263,17.700,18.372
0.141,0.934,-0.193,-8.545,15.625,19.592
0.116,0.971,-0.131,-7.629,16.479,19.775
-0.028,0.988,-0.251,-10.071,15.198,21.912
0.181,0.980,-0.043,-7.141,17.395,22.095
0.075,0.984,-0.193,-8.911,16.418,24.353
-0.026,0.969,-0.213,-8.362,16.541,26.550
0.429,0.963,0.001,-6.287,17.761,25.330
-0.003,0.964,-0.329,-10.498,15.137,29.846
0.006,1.010,-0.085,-9.521,17.639,32.654
0.482,0.943,-0.101,-10.254,15.747,33.264
-0.118,0.981,-0.261,-13.184,13.428,39.185
-0.252,1.021,-0.143,-14.038,11.902,44.006
0.587,1.012,0.040,-9.399,13.245,40.955
0.089,0.997,-0.503,-14.893,10.132,44.983
-0.845,1.233,-0.084,-14.954,14.343,53.833
0.892,0.974,0.267,-10.193,18.433,47.729
-0.616,1.163,-0.669,-12.451,14.709,58.350
0.106,0.977,0.230,-14.282,18.066,59.509
0.419,1.079,-0.326,-16.052,12.451,58.960
-0.211,1.102,0.085,-13.489,17.334,66.772
-0.020,1.047,-0.071,-18.616,12.024,70.496
0.055,1.093,-0.073,-15.991,10.925,73.181
0.159,1.049,-0.089,-19.409,4.333,76.355
-0.084,1.134,-0.111,-19.592,-1.099,81.909
0.203,1.084,-0.008,-20.996,-2.930,83.191
-0.271,1.203,-0.478,-20.203,-5.249,90.515
0.385,1.118,0.164,-20.630,-4.150,91.187
-0.066,1.288,-0.528,-22.095,-10.071,96.985
-0.313,1.266,-0.146,-23.193,-5.066,104.858
0.277,1.279,-0.116,-23.804,-2.075,105.713
-0.115,1.336,-0.192,-21.667,6.470,114.075
-0.158,1.316,-0.163,-26.001,10.986,120.972
0.109,1.448,-0.026,-25.146,14.893,125.732
0.076,1.469,-0.118,-28.198,17.639,131.165
-0.014,1.596,-0.069,-29.114,21.667,137.085
0.304,1.664,0.115,-27.588,30.884,139.221
0.128,1.752,-0.222,-28.748,36.987,146.179
0.399,1.943,-0.005,-26.001,42.725,154.480
0.771,1.808,-0.224,-28.015,48.706,162.354
0.650,1.663,-0.423,-33.020,48.950,177.979
0.449,1.587,-0.276,-41.809,46.326,182.007
0.406,1.528,-0.115,-51.819,48.889,176.208
0.029,1.532,-0.228,-57.129,45.898,177.246
-0.389,1.554,-0.153,-53.406,39.246,181.885
-0.265,1.431,-0.246,-50.781,31.677,175.354
-0.257,1.411,-0.429,-53.101,27.222,164.307
-0.039,1.610,-0.303,-38.391,28.931,150.513
0.353,1.253,-0.236,-26.978,37.903,134.277
0.424,1.017,-0.167,-23.926,50.964,117.065
0.427,0.867,-0.008,-13.184,64.270,102.600
0.434,0.603,-0.024,-3.906,68.054,87.158
0.030,0.341,-0.317,-4.761,56.885,71.289
-0.571,0.201,-0.389,-5.432,43.640,61.279
-0.116,0.385,-0.168,-2.930,30.212,46.753
0.321,0.628,0.089,-7.996,16.357,32.776
0.191,0.975,-0.005,2.808,14.587,15.259
0.179,0.359,-0.041,16.663,20.325,-7.568
-0.100,-0.035,-0.132,5.371,18.860,-13.367
0.094,0.434,0.047,10.681,16.113,-21.973
0.293,0.362,0.127,25.024,14.099,-38.269
0.360,0.242,0.036,31.494,11.841,-54.932
0.354,0.272,0.005,35.522,8.728,-72.388
0.362,0.336,-0.020,38.452,3.174,-87.891
0.345,0.408,-0.024,43.457,-3.662,-102.478
0.263,0.434,-0.057,46.936,-10.498,-115.540
0.159,0.466,-0.088,49.805,-17.761,-126.831
0.086,0.493,-0.096,52.551,-23.743,-138.062
0.076,0.514,-0.096,54.688,-28.503,-150.696
0.090,0.521,-0.098,56.458,-34.363,-164.490
0.094,0.554,-0.080,58.105,-40.710,-177.490
0.104,0.607,-0.090,59.326,-46.509,-189.636
0.109,0.666,-0.091,60.974,-49.927,-202.454
0.123,0.722,-0.090,61.768,-51.880,-214.417
0.165,0.803,-0.102,61.768,-55.237,-225.403
0.182,0.901,-0.113,62.683,-57.495,-236.023
0.171,0.963,-0.150,62.378,-56.030,-245.178
0.148,1.032,-0.167,60.791,-49.072,-251.831
0.137,1.136,-0.141,60.547,-38.513,-256.104
0.183,1.251,-0.160,59.631,-33.508,-259.827
0.206,1.394,-0.195,58.899,-32.898,-265.076
0.069,1.489,-0.155,59.082,-24.170,-270.508
-0.011,1.586,-0.270,58.044,-9.827,-273.804
0.016,1.708,-0.344,59.326,3.845,-276.062
0.067,1.819,-0.428,57.434,15.503,-277.771
0.144,1.973,-0.501,52.246,19.226,-280.884
0.119,2.156,-0.544,49.377,25.085,-282.471
-0.141,2.162,-0.424,48.767,33.020,-278.748
-0.493,2.057,-0.368,43.884,43.335,-272.095
-0.725,2.071,-0.304,35.583,55.481,-266.846
-0.797,2.005,-0.255,28.564,64.636,-258.972
-0.948,1.924,-0.296,21.179,71.411,-244.263
-1.039,1.891,-0.204,14.893,73.486,-229.858
-1.071,1.793,-0.227,14.893,71.899,-212.952
-1.003,1.606,-0.250,14.282,65.552,-194.092
-0.931,1.405,-0.302,9.216,52.917,-173.401
-0.977,1.350,-0.330,7.385,40.833,-148.987
-1.046,1.285,-0.341,6.104,33.142,-121.399
-1.109,1.230,-0.365,6.470,26.062,-90.454
-1.118,1.056,-0.235,2.136,14.832,-57.678
-0.986,1.009,-0.174,-4.028,2.625,-25.940
-0.707,1.041,-0.158,-9.766,-8.606,2.197
-0.500,1.118,-0.135,-12.573,-22.644,27.222
-0.491,1.146,-0.141,-13.855,-39.368,48.157
-0.647,1.088,-0.079,-16.968,-52.429,64.026
-0.653,1.019,-0.186,-23.071,-62.683,75.195
-0.766,1.137,0.018,-23.437,-74.646,88.135
-0.327,1.095,0.066,-27.527,-79.956,88.440
1.146,1.301,-0.093,-39.368,-81.482,67.078
1.924,1.209,0.391,-20.874,-62.683,54.932
1.394,0.862,0.449,-17.761,-42.786,66.223
0.326,0.866,0.137,-20.203,-47.607,78.857
-0.484,1.059,-0.050,-29.541,-49.744,91.003
-0.470,1.412,0.001,-37.109,-42.236,102.966
-0.309,1.617,0.306,-43.945,-29.968,108.337
0.123,1.397,0.249,-45.776,-23.010,99.854
0.281,1.050,0.120,-47.180,-22.705,91.553
-0.096,1.136,-0.253,-46.082,-22.095,95.215
0.115,1.218,-0.130,-37.292,-22.461,95.276
0.153,1.105,-0.400,-39.429,-41.870,90.637
0.277,1.094,-0.396,-41.199,-57.861,83.679
0.143,1.183,-0.167,-36.133,-59.082,76.050
0.097,1.084,0.072,-25.208,-50.903,72.144
-0.058,0.999,-0.100,-17.761,-43.762,66.833
0.111,0.972,-0.055,-9.094,-32.288,55.115
-0.031,0.738,-0.274,-18.799,-17.944,52.612
0.082,1.282,-0.105,-18.433,-3.540,52.795
0.303,1.036,0.047,-16.174,7.507,48.828
-0.155,1.037,-0.135,-23.254,13.000,51.270
0.208,1.185,0.075,-15.808,15.686,48.096
0.710,0.814,0.128,-18.250,12.329,37.415
-0.386,0.887,-0.430,-30.640,6.470,44.067
0.249,1.396,0.020,-13.000,8.789,41.687
0.537,0.611,-0.156,-18.066,7.935,32.715
-0.533,1.229,-0.321,-18.799,10.010,41.565
0.715,0.975,0.031,-3.296,15.076,30.884
-0.176,0.862,-0.250,-14.343,19.226,31.433
0.185,1.071,-0.085,-5.310,26.123,32.410
0.243,0.952,-0.100,-9.033,26.794,28.870
0.282,0.921,-0.101,-10.132,27.954,27.710
0.220,0.914,-0.050,-14.587,24.292,26.489
0.132,0.972,-0.066,-15.686,21.545,25.940
0.336,0.929,0.009,-14.099,18.066,23.743
-0.199,0.919,-0.258,-18.433,13.733,25.818
0.537,0.984,0.070,-11.292,16.174,18.738
-0.012,0.894,-0.218,-17.944,10.376,23.560
-0.155,1.034,-0.124,-13.550,14.221,25.635
0.298,0.901,-0.042,-13.855,15.259,21.973
0.012,1.003,-0.151,-15.442,15.320,26.306
0.160,0.992,-0.132,-14.038,15.320,25.635
0.040,1.042,-0.125,-14.282,14.526,28.992
0.240,0.953,-0.135,-13.245,13.977,28.625
0.051,0.993,-0.143,-14.404,10.864,31.006
0.155,0.989,-0.030,-11.536,11.780,29.114
0.351,0.908,-0.235,-13.733,7.996,26.978
-0.140,1.091,-0.144,-12.695,5.310,30.334
0.282,0.945,-0.017,-11.963,8.423,24.902
0.108,0.975,-0.316,-12.817,3.601,26.855
-0.273,1.054,-0.260,-12.268,1.160,29.419
0.134,1.025,0.025,-8.118,6.226,25.940
0.583,0.916,-0.184,-7.202,5.127,21.240
-0.556,1.134,-0.568,-8.179,-1.831,28.076
-0.050,0.995,0.254,-2.563,9.399,24.597
0.553,0.798,-0.489,-7.568,2.563,22.705
-0.686,1.277,-0.275,-2.136,2.808,29.846
0.468,0.758,-0.013,-8.423,10.681,23.315
-0.058,1.098,-0.437,-5.005,7.629,29.541
0.038,0.917,-0.043,-7.812,14.160,30.640
0.189,1.033,-0.002,-8.911,12.329,37.048
0.153,0.978,-0.156,-9.399,12.695,39.001
0.042,0.968,-0.208,-12.695,8.972,46.082
0.087,1.024,-0.090,-12.817,10.620,50.049
0.252,1.005,-0.156,-12.329,8.728,54.016
-0.344,1.133,-0.253,-11.475,8.728,60.608
0.501,0.990,-0.063,-11.597,8.728,59.265
-0.222,1.159,-0.383,-11.230,1.587,67.932
-0.096,1.074,0.069,-11.475,6.470,70.618
0.144,1.136,-0.236,-8.789,0.732,73.242
-0.072,1.090,-0.073,-10.742,1.343,77.515
-0.138,1.145,-0.264,-14.099,-2.075,81.360
0.104,1.175,-0.000,-12.451,0.244,84.167

0.245,1.671,-0.047,-42.786,45.837,180.359
0.057,1.521,-0.176,-38.330,37.354,180.481
-0.120,1.409,-0.266,-39.490,29.846,173.462
0.158,1.588,-0.366,-33.630,15.259,159.363
0.345,1.377,-0.145,-24.536,8.240,146.790
0.369,1.048,-0.133,-23.315,12.329,128.662
0.488,0.902,-0.117,-18.616,19.043,111.938
0.493,0.725,-0.141,-8.606,23.560,95.154
-0.021,0.363,-0.295,-11.963,19.287,81.665
-0.735,0.264,-0.372,-10.681,12.451,71.106
-0.111,0.535,-0.158,-2.625,9.399,52.856
0.296,0.737,0.038,-5.981,3.052,37.292
0.125,0.857,-0.081,9.888,7.996,13.794
-0.052,0.266,-0.126,16.174,15.808,-4.211
-0.124,0.208,-0.099,7.874,13.794,-8.789
0.192,0.418,0.048,19.714,19.165,-19.775
0.337,0.291,0.096,31.311,22.034,-35.217
0.396,0.221,0.000,37.537,20.874,-52.551
0.352,0.227,-0.060,41.931,18.066,-70.984
0.336,0.269,-0.075,46.997,14.160,-87.219
0.314,0.290,-0.080,50.903,9.949,-101.929
0.245,0.299,-0.116,51.941,4.150,-115.540
0.167,0.383,-0.154,53.528,-1.465,-128.235
0.094,0.426,-0.145,55.908,-5.859,-140.442
0.088,0.477,-0.143,57.983,-8.728,-152.954
0.099,0.507,-0.120,60.120,-12.634,-165.894
0.098,0.525,-0.112,61.584,-16.907,-179.260
0.127,0.565,-0.112,61.646,-20.630,-193.359
0.112,0.655,-0.102,64.087,-22.278,-206.909
0.114,0.675,-0.122,65.735,-22.278,-220.032
0.148,0.726,-0.126,64.880,-21.912,-231.995
0.188,0.794,-0.136,63.965,-21.179,-243.469
0.208,0.845,-0.153,60.242,-18.494,-254.333
0.192,0.949,-0.147,57.190,-13.184,-261.597
0.160,1.067,-0.124,55.908,-5.005,-265.625
0.173,1.170,-0.131,54.382,1.099,-269.958
0.237,1.269,-0.162,50.659,0.793,-276.367
0.094,1.424,-0.122,46.997,5.676,-281.799
0.010,1.591,-0.222,44.434,14.587,-285.583
0.029,1.701,-0.288,39.978,18.677,-290.405
0.158,1.854,-0.309,34.607,16.541,-294.617
0.206,2.049,-0.390,28.687,4.639,-302.979
0.159,2.222,-0.403,19.165,-6.104,-309.998
-0.101,2.377,-0.382,14.038,-7.874,-306.824
-0.483,2.296,-0.289,14.282,-2.930,-298.279
-0.712,2.069,-0.354,11.658,4.883,-284.119
-0.727,2.003,-0.262,6.958,6.653,-268.372
-0.841,1.999,-0.320,0.183,4.150,-253.357
-0.972,2.038,-0.314,-5.554,0.977,-236.084
-1.099,2.018,-0.387,-5.066,6.165,-213.562
-1.103,1.852,-0.412,-1.221,4.395,-188.416
-1.147,1.584,-0.421,0.793,5.310,-157.715
-1.234,1.433,-0.376,0.427,10.864,-127.747
-1.354,1.314,-0.385,2.258,11.719,-94.971
-1.408,1.138,-0.348,-3.540,13.611,-60.913
-1.323,1.104,-0.306,-9.338,11.414,-24.536
-1.079,1.128,-0.222,-13.550,-0.183,9.277
-0.903,1.165,-0.135,-16.785,-13.733,37.109
-0.920,1.171,-0.043,-18.860,-21.973,59.265
-0.953,1.188,-0.055,-19.043,-28.809,78.003
-0.957,1.198,-0.018,-19.592,-34.485,92.285
-0.747,1.170,-0.044,-23.682,-40.527,100.891
-0.209,1.266,0.199,-17.273,-40.710,97.473
0.943,1.156,0.338,-20.203,-43.640,81.055
1.865,1.160,0.316,-18.188,-31.799,63.354
1.478,0.862,0.267,-15.625,-13.733,62.744
0.506,0.715,0.157,-20.996,-20.752,66.223
-0.228,0.944,-0.014,-24.292,-34.546,76.782
-0.467,1.244,-0.237,-37.659,-23.254,85.815
-0.140,1.474,-0.041,-39.917,-25.452,93.933
0.143,1.392,0.031,-41.809,-21.973,96.375
0.052,1.280,-0.065,-43.091,-27.649,88.318
0.318,1.203,-0.206,-40.283,-26.794,80.444
0.040,1.231,-0.206,-33.875,-28.931,80.078
0.105,1.252,-0.114,-26.672,-23.926,79.651
0.242,1.061,-0.054,-28.931,-29.114,74.280
0.003,1.035,-0.215,-31.250,-37.781,71.777
0.268,1.026,-0.166,-27.161,-37.659,61.707
0.400,0.979,0.048,-15.320,-29.419,51.514
-0.615,0.963,-0.426,-5.737,-20.142,50.171
0.252,0.962,-0.008,-17.761,-8.484,51.514
-0.131,1.073,-0.208,-20.203,-6.287,45.227
0.194,1.178,-0.037,-19.165,7.141,46.326
0.271,0.990,0.013,-17.517,8.972,41.382
0.101,1.071,0.024,-18.250,14.587,43.762
0.174,1.033,-0.030,-14.221,12.878,41.260
0.314,0.995,-0.055,-13.245,11.292,35.950
0.236,0.968,-0.077,-12.268,10.010,33.081
0.098,1.026,-0.149,-13.000,8.057,30.518
0.366,1.005,-0.015,-12.024,7.324,26.978
-0.063,1.019,-0.267,-13.855,8.545,26.917
0.613,1.009,-0.024,-6.836,11.475,22.400
-0.086,0.880,-0.217,-12.878,13.916,23.682
-0.013,1.135,-0.199,-4.517,17.517,25.208
0.328,0.872,-0.063,-3.601,18.921,21.973
0.024,0.936,-0.159,-7.629,21.484,21.240
0.176,0.942,-0.158,-7.080,21.790,19.653
0.138,0.983,-0.080,-7.996,23.315,18.616
0.265,0.885,-0.103,-9.216,20.935,18.005
0.063,0.951,-0.115,-12.573,18.005,19.165
0.364,1.015,-0.002,-8.179,17.334,16.357
0.308,0.852,-0.138,-12.512,14.465,16.785
-0.068,1.040,-0.101,-12.085,14.648,19.836
0.385,0.984,-0.038,-7.263,17.639,16.602
0.102,0.894,-0.196,-11.902,14.282,20.569
-0.236,1.048,-0.186,-11.719,14.160,24.231
0.320,1.028,-0.010,-6.165,20.569,19.226
0.590,0.844,-0.123,-9.460,15.869,19.470
-0.586,1.021,-0.333,-13.977,10.742,29.541
0.329,1.078,0.230,-4.211,21.667,22.400
0.323,0.739,-0.557,-15.015,7.996,26.184
-0.285,1.223,0.102,-10.742,12.146,32.288
0.575,0.828,-0.152,-12.390,11.963,25.818
-0.047,1.034,-0.230,-11.475,8.118,34.424
0.109,0.917,-0.157,-11.963,11.292,31.128
0.158,1.023,-0.115,-10.864,9.766,32.410
0.170,1.010,-0.082,-9.827,12.268,31.982
0.035,1.018,-0.232,-11.047,11.108,32.715
0.049,1.025,-0.140,-9.277,13.000,33.936
0.218,0.934,-0.204,-10.193,11.536,35.339
-0.077,1.086,-0.105,-8.423,13.977,38.635
0.448,0.850,-0.240,-9.460,13.550,37.659
-0.204,1.080,-0.304,-11.536,10.559,46.326
0.097,0.965,0.069,-11.230,13.611,48.157
0.117,1.007,-0.274,-11.414,9.949,52.612
0.129,1.040,-0.112,-12.634,9.644,54.077
-0.135,1.098,-0.253,-15.137,7.080,57.556
0.169,1.078,-0.065,-11.780,10.803,58.899
-0.076,1.081,-0.241,-11.963,11.292,63.965
-0.069,1.049,-0.094,-11.475,15.137,66.345
0.393,1.033,-0.077,-10.925,14.465,65.369
-0.264,1.099,-0.300,-12.817,12.634,71.594
0.236,1.083,0.120,-11.963,15.808,72.632
0.064,1.125,-0.319,-11.353,9.705,76.050
-0.385,1.152,-0.184,-15.503,8.240,83.008
0.222,1.170,0.140,-15.259,11.292,84.290
0.417,1.145,-0.154,-11.780,9.338,83.130
-0.805,1.225,-0.571,-20.081,5.798,92.346
0.309,1.219,0.589,-17.883,15.625,94.482
0.106,1.249,-0.650,-16.113,3.967,96.619
-0.737,1.296,0.001,-20.935,7.019,108.948
0.681,1.191,0.098,-22.156,10.681,104.370
-0.316,1.448,-0.420,-17.700,8.301,114.624
-0.147,1.270,-0.020,-25.330,11.841,116.028
0.073,1.410,-0.217,-23.254,13.062,120.239
0.106,1.407,0.009,-23.865,17.090,123.962
-0.114,1.497,-0.109,-25.818,23.987,128.357
0.083,1.529,0.025,-25.330,32.837,134.827
0.209,1.596,-0.081,-27.344,34.302,142.273
0.400,1.780,0.175,-28.748,36.255,148.071
0.474,1.788,-0.057,-31.006,32.959,156.311
0.295,1.806,-0.193,-33.569,30.701,169.312
0.480,1.664,-0.136,-41.138,31.128,171.570
0.154,1.683,-0.147,-49.194,32.104,172.302
0.155,1.640,-0.053,-49.622,33.691,172.058
-0.011,1.549,-0.145,-49.561,30.579,173.645
-0.101,1.468,-0.221,-45.166,26.978,172.302
-0.167,1.440,-0.310,-45.837,20.447,165.955
0.196,1.625,-0.333,-32.593,9.766,154.663
0.429,1.329,-0.139,-20.874,9.033,139.343
0.368,0.980,-0.093,-18.982,19.592,121.094
0.319,0.871,-0.060,-15.991,33.630,106.750
0.345,0.701,-0.093,-5.737,39.185,92.468
0.057,0.415,-0.280,-5.493,32.654,80.994
-0.537,0.271,-0.430,-4.761,28.198,69.946
-0.152,0.472,-0.247,0.061,24.292,51.880
0.317,0.692,0.020,-3.357,14.648,36.194
0.103,0.936,-0.062,8.179,17.151,15.320
-0.000,0.324,-0.131,18.494,25.635,-3.662
-0.049,0.195,-0.114,11.780,26.367,-9.766
0.186,0.452,0.041,21.118,29.358,-21.118
0.327,0.346,0.063,30.212,31.799,-35.461
0.408,0.281,0.008,36.621,28.931,-51.758
0.384,0.275,-0.042,40.955,22.888,-69.336
0.351,0.316,-0.053,44.556,18.494,-86.121
0.340,0.367,-0.064,47.302,12.939,-101.563
0.281,0.411,-0.090,49.438,6.165,-115.356
0.206,0.462,-0.121,50.659,-0.549,-128.357
0.129,0.507,-0.115,52.856,-4.456,-140.747
0.083,0.531,-0.110,54.688,-7.324,-153.076
0.087,0.556,-0.103,56.641,-10.681,-165.466
0.097,0.585,-0.099,58.472,-14.343,-178.162
0.105,0.606,-0.093,60.242,-17.456,-191.956
0.139,0.644,-0.098,61.768,-19.714,-206.177
0.140,0.703,-0.108,62.500,-21.301,-218.750
0.166,0.750,-0.122,62.500,-21.790,-231.018
0.195,0.811,-0.130,59.937,-19.958,-241.760
0.208,0.908,-0.112,57.556,-15.564,-250.244
0.180,1.014,-0.099,54.688,-10.986,-256.104
0.137,1.135,-0.074,53.711,-5.676,-258.911
0.192,1.196,-0.121,51.819,-4.211,-264.343
0.122,1.304,-0.134,48.584,-0.610,-271.057
-0.048,1.462,-0.145,47.913,12.817,-274.292
-0.113,1.574,-0.274,45.776,23.437,-277.466
-0.067,1.653,-0.290,41.443,29.907,-281.067
0.064,1.758,-0.313,36.377,28.687,-284.912
0.159,1.921,-0.277,30.457,19.165,-291.626
0.187,2.013,-0.354,25.024,6.897,-296.448
0.114,2.089,-0.265,19.592,0.793,-294.861
-0.179,2.086,-0.216,12.207,-2.686,-293.091
-0.509,2.047,-0.166,9.155,0.916,-285.095
-0.629,2.022,-0.153,9.399,4.211,-271.606
-0.713,1.999,-0.137,6.348,5.737,-257.385
-0.836,1.966,-0.170,2.869,2.014,-241.455
-0.893,1.970,-0.273,2.686,0.732,-221.130
-0.968,1.921,-0.378,6.165,-1.221,-198.303
-1.123,1.646,-0.457,8.118,-3.418,-174.072
-1.277,1.378,-0.459,2.197,2.197,-145.996
-1.466,1.384,-0.462,0.854,10.376,-114.380
-1.658,1.250,-0.359,2.136,14.648,-74.402
-1.518,1.110,-0.343,-2.380,10.681,-32.959
-1.116,1.107,-0.279,-8.179,-0.122,5.554
-0.813,1.170,-0.245,-12.634,-14.221,37.170
-0.676,1.170,-0.228,-17.029,-29.724,58.105
-0.652,1.201,-0.194,-20.630,-39.307,72.327
-0.752,1.221,-0.050,-19.226,-48.035,89.417
-0.754,1.118,-0.049,-23.193,-60.608,100.647
-0.575,1.163,-0.014,-23.315,-72.449,104.431
0.220,1.227,0.305,-15.686,-70.618,85.388
1.472,0.951,0.320,-17.151,-64.270,60.120
1.703,0.901,0.061,-33.752,-43.213,50.232
1.318,1.041,0.134,-19.165,-20.691,54.016
0.345,0.858,0.080,-24.658,-27.039,68.481
-0.302,1.116,-0.218,-33.752,-29.358,85.632
0.091,1.287,-0.005,-39.368,-21.912,86.426
-0.213,1.321,0.283,-42.297,-32.288,87.280
-0.099,1.391,0.062,-39.673,-36.316,92.346
-0.060,1.170,0.012,-46.753,-41.321,90.027
-0.201,1.367,-0.252,-45.288,-40.405,87.891
0.053,1.324,0.232,-30.090,-25.024,83.862
-0.075,1.184,0.030,-26.917,-21.240,77.576
0.161,1.054,0.032,-29.663,-14.648,73.242
0.297,0.967,-0.062,-35.217,-16.479,66.345
0.393,0.949,-0.171,-34.973,-15.991,62.744
0.214,0.954,-0.311,-33.203,-23.437,58.655
0.265,1.015,-0.156,-22.034,-26.001,52.917
0.030,0.932,-0.297,-21.179,-26.611,44.922
0.386,1.054,0.063,-7.874,-20.691,37.781

0.370,0.358,-0.086,47.424,11.353,-105.286
0.224,0.415,-0.151,51.025,0.977,-133.362
0.162,0.477,-0.151,52.551,-4.089,-147.400
0.110,0.542,-0.147,54.443,-8.423,-159.851
0.084,0.580,-0.125,55.725,-11.536,-172.302
0.102,0.607,-0.129,56.580,-15.320,-185.059
0.126,0.633,-0.121,57.922,-17.822,-198.303
0.132,0.680,-0.109,59.143,-18.738,-210.999
0.121,0.747,-0.121,60.669,-17.822,-223.083
0.140,0.771,-0.144,60.364,-16.174,-235.291
0.152,0.833,-0.142,58.228,-12.268,-246.704
0.173,0.906,-0.126,54.504,-6.714,-255.554
0.166,1.014,-0.125,51.697,-0.244,-262.512
0.142,1.128,-0.098,49.927,7.324,-266.541
0.196,1.222,-0.146,47.485,10.498,-270.447
0.152,1.320,-0.172,43.884,11.719,-277.100
0.020,1.446,-0.149,39.612,18.921,-282.410
-0.012,1.584,-0.205,37.659,28.137,-285.706
0.038,1.680,-0.250,33.142,33.020,-289.368
0.138,1.842,-0.284,27.161,28.687,-293.640
0.125,1.981,-0.313,23.865,22.095,-296.692
0.090,2.084,-0.341,17.029,15.686,-299.255
-0.129,2.172,-0.244,12.268,16.968,-296.814
-0.442,2.117,-0.234,9.705,17.883,-291.321
-0.581,2.084,-0.208,7.996,12.878,-280.823
-0.666,2.069,-0.168,5.432,3.906,-266.479
-0.744,2.068,-0.179,2.380,-4.578,-251.404
-0.904,2.050,-0.235,-0.732,-11.902,-235.046
-0.996,1.975,-0.306,1.587,-15.015,-211.792
-1.078,1.742,-0.367,2.136,-18.677,-185.242
-1.164,1.507,-0.343,-2.930,-19.714,-156.555
-1.385,1.455,-0.322,-6.531,-14.038,-125.854
-1.623,1.324,-0.305,-8.484,-4.395,-89.661
-1.713,1.223,-0.284,-10.437,0.366,-48.096
-1.490,1.136,-0.225,-12.207,-3.845,-5.371
-1.118,1.141,-0.266,-15.930,-16.602,31.433
-0.865,1.194,-0.256,-18.494,-33.691,59.021
-0.809,1.214,-0.231,-21.118,-49.683,79.712
-0.827,1.184,-0.119,-23.804,-62.683,96.375
-0.585,1.105,-0.065,-26.428,-71.777,103.210
-0.143,1.179,0.217,-17.883,-70.801,96.619
1.313,1.071,0.281,-22.217,-75.745,78.735
1.817,1.134,0.413,-18.982,-62.683,65.979
1.193,0.909,0.363,-14.404,-39.246,66.772
0.207,0.782,0.234,-21.362,-45.532,69.702
-0.396,0.991,0.012,-28.992,-63.782,77.087
-0.415,1.310,-0.217,-33.020,-58.411,90.820
-0.297,1.400,0.051,-45.227,-39.673,106.262
0.134,1.622,0.223,-40.283,-12.268,108.215
0.205,1.203,0.162,-39.978,-8.789,100.891
-0.372,1.114,-0.518,-51.086,-17.517,96.558
0.495,1.259,-0.140,-43.762,-19.714,83.191
0.015,1.200,-0.241,-37.598,-34.729,86.365
0.350,1.179,-0.290,-31.860,-47.607,83.740
0.382,0.986,-0.201,-31.738,-59.265,73.608
0.170,1.093,-0.137,-23.499,-62.439,66.284
-0.073,0.933,-0.097,-20.447,-55.603,59.937
-0.060,0.994,-0.173,-11.719,-38.025,54.199
-0.082,1.056,-0.067,2.075,-17.273,45.654
-0.198,1.046,-0.059,-20.447,4.150,48.584
0.025,1.184,0.068,-13.794,15.381,47.729
0.240,1.168,0.176,-12.695,25.330,42.603
0.272,0.923,0.029,-18.066,26.550,39.856
-0.240,1.043,-0.088,-20.569,23.254,40.833
0.420,1.047,0.057,-15.381,16.602,33.752
0.181,0.874,-0.093,-22.461,7.812,25.574
0.216,0.992,-0.125,-23.437,4.456,21.790
0.038,1.058,-0.164,-21.729,2.319,20.325
0.265,1.000,-0.071,-16.846,5.249,18.005
0.024,0.967,-0.157,-15.808,6.470,18.311
0.140,1.055,-0.159,-7.629,14.526,16.602
0.480,0.871,-0.076,-5.615,20.081,12.451
-0.167,0.940,-0.205,-11.719,24.353,14.648
0.389,1.092,-0.064,-2.319,29.053,12.268
0.318,0.767,-0.083,-9.644,27.771,10.986
-0.160,0.981,-0.180,-13.916,23.254,15.503
0.217,1.053,-0.005,-6.653,21.606,14.221
0.765,0.859,0.049,-7.812,18.494,7.507
-0.302,0.846,-0.313,-21.973,10.803,16.663
-0.094,1.263,0.002,-6.958,14.771,17.517
0.792,0.708,-0.041,-10.010,14.221,11.536
-0.563,1.014,-0.311,-19.836,9.277,25.574
0.450,1.119,0.043,-7.935,18.921,19.836
0.249,0.839,-0.264,-14.221,13.245,23.865
0.102,1.011,-0.001,-12.268,18.555,30.396
0.219,0.937,-0.178,-12.329,18.738,29.846
0.219,0.943,-0.069,-12.146,18.372,31.311
0.263,0.946,-0.116,-14.038,15.015,33.020
0.060,0.980,-0.115,-15.930,12.329,34.485
0.280,0.967,-0.053,-15.930,10.620,33.813
-0.074,0.937,-0.317,-18.921,5.188,37.598
0.389,1.035,0.156,-14.648,9.644,32.410
0.106,0.895,-0.365,-20.447,1.770,35.339
-0.239,1.098,-0.092,-17.456,2.991,37.720
0.212,0.978,-0.043,-17.090,4.456,33.813
-0.031,1.025,-0.270,-16.541,2.930,36.560
0.075,0.985,-0.205,-15.015,4.089,34.729
-0.060,1.054,-0.187,-13.855,5.371,35.095
0.130,0.949,-0.232,-11.841,8.423,33.447
-0.070,1.014,-0.260,-11.108,9.460,35.583
0.213,0.974,-0.039,-9.338,15.503,33.997
0.140,0.930,-0.363,-13.672,14.954,36.621
-0.071,1.080,-0.030,-12.756,18.982,41.809
0.414,0.953,0.004,-14.526,19.043,42.786
-0.056,1.055,-0.295,-16.785,13.733,50.842
-0.257,1.068,-0.110,-18.616,14.893,57.739
0.564,1.024,0.054,-15.137,16.663,56.519
0.142,1.055,-0.535,-16.541,9.216,61.890
-0.869,1.226,-0.177,-17.761,12.634,72.144
1.058,0.980,0.347,-14.038,14.282,66.772
-0.813,1.240,-1.017,-13.062,7.812,78.186
0.253,1.000,0.459,-15.503,16.541,79.895
0.215,1.187,-0.506,-14.832,8.667,82.581
-0.126,1.134,0.081,-12.939,15.869,89.294
0.021,1.218,-0.132,-19.348,11.719,92.346
-0.004,1.263,-0.113,-13.489,13.794,95.886
0.029,1.214,-0.147,-19.348,12.146,98.450
-0.142,1.284,-0.141,-19.897,11.780,104.065
0.281,1.255,0.044,-20.569,12.634,105.652
-0.367,1.324,-0.342,-21.545,11.292,111.694
0.331,1.270,0.074,-21.729,15.137,110.840
-0.189,1.372,-0.392,-25.208,8.057,117.249
-0.122,1.407,-0.000,-25.391,14.771,120.728
-0.035,1.424,-0.152,-24.841,19.958,122.925
-0.080,1.529,0.022,-21.484,26.550,130.127
-0.012,1.548,-0.167,-23.499,29.358,137.878
0.358,1.671,-0.009,-26.001,29.541,145.569
0.399,1.759,-0.039,-30.273,28.748,151.978
0.443,1.858,-0.005,-30.334,28.809,161.011
0.769,1.657,-0.074,-31.433,33.203,166.870
0.423,1.545,-0.238,-41.931,32.349,170.776
0.155,1.600,-0.025,-49.805,33.020,168.213
0.048,1.609,-0.105,-52.368,34.241,164.978
-0.154,1.599,-0.159,-50.354,32.166,167.358
-0.307,1.544,-0.251,-45.532,26.550,168.945
-0.087,1.434,-0.293,-41.626,21.912,162.659
0.285,1.438,-0.251,-40.100,16.174,147.827
0.291,1.361,-0.229,-32.043,14.404,139.832
0.266,1.050,-0.122,-21.851,24.963,125.549
0.432,0.769,-0.044,-19.348,40.100,108.276
0.396,0.680,-0.105,-11.902,46.082,90.149
0.043,0.383,-0.251,-10.193,44.434,75.867
-0.501,0.191,-0.382,-10.742,41.504,62.866
0.011,0.408,-0.191,-9.155,38.940,45.776
0.350,0.688,-0.028,-11.841,30.273,32.288
0.224,0.759,-0.034,7.324,34.241,9.033
-0.162,0.166,-0.224,7.507,36.194,-4.028
0.014,0.356,0.011,2.625,29.053,-11.414
0.325,0.419,0.070,14.526,29.846,-29.175
0.416,0.289,0.078,22.156,25.635,-46.509
0.439,0.263,0.017,26.917,20.203,-65.796
0.401,0.339,-0.042,32.410,13.184,-84.412
0.296,0.429,-0.045,37.842,10.010,-99.487
0.158,0.459,-0.108,40.588,9.460,-111.633
0.099,0.468,-0.166,40.955,5.676,-122.009
0.144,0.473,-0.210,40.771,-0.244,-133.545
0.170,0.489,-0.207,40.527,-5.859,-146.973
0.172,0.506,-0.196,40.344,-10.498,-161.133
0.165,0.556,-0.182,41.260,-12.390,-175.110
0.146,0.582,-0.167,43.030,-9.644,-189.087
0.134,0.601,-0.163,44.678,-5.859,-201.660
0.141,0.658,-0.161,45.715,-2.563,-212.524
0.128,0.731,-0.152,45.898,2.197,-222.839
0.080,0.807,-0.160,44.922,9.460,-231.201
0.049,0.890,-0.152,43.823,18.616,-237.549
0.036,0.966,-0.141,42.725,28.320,-242.981
0.084,1.026,-0.171,42.236,35.889,-246.826
0.161,1.094,-0.213,40.100,39.734,-252.258
0.126,1.202,-0.211,37.842,43.030,-257.629
0.080,1.288,-0.190,34.973,47.363,-263.245
0.125,1.385,-0.196,31.372,51.086,-268.372
0.137,1.472,-0.209,27.039,50.354,-274.902
0.180,1.609,-0.197,24.231,48.950,-279.236
0.144,1.725,-0.197,21.118,45.410,-282.654
0.067,1.874,-0.175,16.846,41.382,-285.400
-0.051,2.002,-0.155,15.381,38.818,-284.546
-0.297,2.057,-0.126,14.771,39.551,-280.579
-0.498,2.072,-0.078,16.846,42.297,-273.926
-0.683,1.973,-0.045,13.367,47.363,-263.611
-0.689,1.962,-0.069,9.033,43.762,-251.831
-0.683,1.957,-0.110,3.113,34.485,-239.014
-0.795,1.952,-0.121,0.000,23.071,-224.609
-0.947,1.811,-0.151,-1.099,11.902,-204.773
-0.969,1.625,-0.175,-3.662,-6.958,-181.152
-1.004,1.468,-0.157,-7.690,-28.259,-152.466
-1.214,1.381,-0.209,-10.498,-42.542,-122.742
-1.505,1.274,-0.243,-13.977,-50.293,-91.492
-1.697,1.218,-0.209,-16.968,-51.819,-55.664
-1.594,1.120,-0.204,-20.447,-54.077,-16.907
-1.242,1.166,-0.260,-24.841,-66.711,19.531
-0.992,1.241,-0.338,-29.663,-80.872,49.194
-0.701,1.279,-0.405,-32.288,-98.572,71.594
-0.978,1.157,-0.270,-40.283,-102.295,96.436
-0.826,1.485,-0.414,-42.664,-82.825,107.056
0.995,1.217,-0.040,-26.733,-64.331,87.280
2.105,1.244,0.958,-5.127,-53.711,85.022
0.849,1.041,0.718,-3.845,-64.819,96.863
-0.321,0.972,0.080,-15.076,-84.595,101.746
-0.338,1.075,0.110,-42.175,-104.187,109.619
-0.839,1.698,-0.276,-50.964,-109.009,127.197
-0.262,1.786,0.475,-23.560,-66.040,126.770
0.075,1.147,0.071,-23.743,-37.292,113.342
0.388,0.941,-0.143,-42.664,-27.893,103.516
0.257,1.064,-0.396,-49.255,-39.917,103.027
0.283,1.260,-0.357,-41.199,-63.904,93.933
0.027,1.303,-0.089,-23.132,-61.829,81.787
-0.378,0.994,0.182,-21.790,-42.053,82.947
-0.353,1.010,-0.187,-14.343,-33.752,83.008
0.122,0.761,-0.150,-14.954,-19.409,70.740
-0.442,1.034,-0.123,-31.555,-9.155,70.923
-0.193,1.208,-0.047,-19.531,3.235,65.369
0.138,0.934,-0.083,-29.602,16.541,57.495
0.204,1.120,-0.042,-34.546,23.010,54.443
0.076,1.127,0.017,-32.959,25.513,55.603
0.297,0.968,0.174,-30.518,24.353,52.307
0.027,0.904,-0.030,-35.095,21.057,49.011
0.234,1.015,-0.075,-31.128,19.348,40.955
0.409,0.921,-0.209,-29.846,14.343,32.593
-0.213,1.113,-0.179,-30.396,13.977,34.302
0.422,1.102,-0.100,-21.545,17.029,28.381
0.216,0.883,-0.239,-25.513,15.747,28.198
-0.246,1.101,-0.202,-21.362,18.127,32.715
0.228,1.005,-0.019,-14.038,24.231,25.574
0.656,0.810,-0.109,-17.273,21.362,18.433
-0.659,1.119,-0.318,-19.165,17.700,26.428
0.240,1.097,0.197,-5.859,27.039,18.616
0.440,0.682,-0.472,-16.418,14.648,15.991
-0.463,1.262,-0.004,-8.728,16.296,20.935
0.521,0.879,-0.192,-7.080,16.357,12.817
0.007,0.958,-0.274,-8.484,13.306,16.663
0.089,0.966,-0.171,-5.920,17.212,14.526
0.121,1.042,-0.047,-4.211,18.066,16.174
0.203,0.961,-0.206,-4.211,18.677,13.367
0.140,0.981,-0.227,-4.639,15.808,14.343
0.046,1.045,-0.104,-2.808,16.418,15.137
0.296,0.995,-0.111,-2.869,16.235,13.794
-0.282,1.052,-0.270,-2.686,15.015,17.395
0.534,0.901,0.027,-0.061,18.982,13.123

-0.838,1.579,-0.133,4.333,5.615,-154.114
-1.175,1.233,-0.148,-6.287,-14.160,-102.112
-1.243,1.173,-0.083,-13.000,-24.658,-71.716
-1.318,1.151,0.014,-17.822,-33.386,-38.391
-1.297,1.149,0.067,-19.836,-41.565,-4.639
-1.189,1.118,0.051,-18.677,-52.063,26.123
-1.065,1.083,-0.041,-20.447,-66.345,50.903
-0.854,1.156,-0.120,-24.414,-83.374,70.313
-0.847,1.184,-0.091,-27.344,-96.191,86.792
-0.803,1.135,-0.144,-29.968,-105.286,97.473
-0.090,1.171,-0.244,-28.687,-110.779,87.891
1.185,1.106,-0.170,-24.963,-111.145,62.866
2.207,1.086,-0.256,-27.405,-69.641,44.556
1.754,0.970,0.403,-8.667,-22.888,55.847
0.355,0.887,0.354,-7.324,-29.480,78.308
-0.573,1.119,0.170,-12.024,-28.564,97.107
-0.944,1.414,-0.069,-30.884,-14.099,113.220
-0.380,1.702,0.173,-37.170,-5.615,118.164
0.417,1.413,0.331,-36.560,-5.005,106.201
-0.223,1.174,-0.205,-50.293,-23.865,96.924
0.314,1.466,0.281,-37.170,-11.536,88.135
-0.486,1.219,0.045,-28.320,-4.456,89.600
0.090,1.181,0.085,-20.813,-1.465,88.684
0.323,0.849,-0.167,-34.912,-17.883,76.538
0.403,0.886,-0.567,-45.532,-40.894,69.031
0.413,1.044,-0.519,-39.124,-50.354,61.279
0.178,1.107,-0.370,-27.954,-45.105,55.359
-0.050,1.107,-0.174,-17.029,-28.625,54.749
-0.169,1.061,-0.174,-8.484,-7.629,51.880
-0.042,0.896,-0.120,-10.986,15.869,48.584
0.145,1.367,0.073,-7.202,28.320,49.011
0.394,0.887,0.025,-11.414,35.156,42.847
-0.230,1.080,-0.034,-18.738,34.119,45.776
0.388,1.043,0.039,-12.695,28.809,36.133
0.237,0.890,-0.099,-18.555,21.362,29.785
0.265,1.010,-0.060,-14.343,14.404,25.452
0.035,1.009,-0.182,-14.343,6.714,23.376
0.317,1.049,-0.109,-8.057,5.554,20.325
0.137,0.961,-0.186,-7.812,5.737,19.958
0.102,1.001,-0.210,-3.235,7.141,18.921
0.489,0.907,-0.052,1.343,13.611,14.893
0.045,0.923,-0.150,-3.113,18.738,15.625
0.154,1.023,-0.036,0.061,17.273,14.282
0.481,0.857,-0.003,-1.465,17.761,10.071
-0.010,0.939,-0.099,-7.568,12.878,11.169
-0.101,1.009,-0.130,-8.118,7.935,11.475
0.598,0.969,0.007,-4.211,8.240,5.493
0.245,0.848,-0.193,-9.277,8.179,6.653
-0.527,1.200,-0.166,-3.967,2.075,16.968
0.751,0.880,0.037,-1.709,3.174,8.179
-0.013,0.894,-0.267,-9.766,5.005,18.982
0.040,1.094,-0.068,-2.380,3.540,22.217
0.527,0.857,-0.061,-9.277,4.944,20.752
0.106,0.988,-0.032,-6.714,8.118,28.503
0.189,0.847,-0.214,-9.705,5.798,27.893
0.336,1.001,-0.007,-8.728,5.188,28.992
0.281,0.909,-0.078,-10.132,4.333,29.175
0.030,0.975,-0.154,-11.169,2.625,30.457
0.196,0.942,-0.137,-11.475,1.465,28.748
0.217,0.962,-0.098,-12.512,0.671,29.846
-0.034,1.033,-0.057,-10.437,0.183,29.053
0.408,0.850,-0.229,-12.695,0.000,25.330
-0.179,1.104,-0.182,-12.512,-0.366,30.945
0.065,0.999,-0.055,-11.169,0.122,28.992
0.126,0.954,-0.199,-11.963,1.953,30.396
0.095,1.010,-0.097,-10.376,5.493,30.457
-0.057,0.963,-0.226,-14.160,4.639,31.250
0.163,0.992,-0.079,-11.597,5.859,29.907
0.013,0.992,-0.169,-13.611,6.409,32.532
-0.025,0.991,-0.169,-12.634,8.362,34.546
0.422,0.955,-0.018,-12.451,9.705,34.790
0.012,0.971,-0.235,-16.113,11.047,40.894
0.099,0.988,-0.055,-15.442,11.414,44.434
0.472,0.922,-0.151,-16.968,10.254,47.058
-0.151,1.039,-0.281,-19.653,11.475,55.420
-0.044,1.152,-0.039,-17.578,11.353,59.143
0.622,1.043,-0.027,-14.221,11.780,57.983
-0.178,1.040,-0.527,-20.813,14.648,64.636
-0.493,1.277,0.161,-13.794,16.479,71.777
0.755,0.935,0.014,-16.785,12.695,68.481
-0.973,1.283,-0.251,-16.296,16.541,79.895
0.453,1.011,0.206,-15.991,11.169,79.773
-0.207,1.264,-0.254,-12.939,9.705,84.351
0.009,1.082,-0.031,-12.756,12.146,89.294
0.050,1.179,-0.131,-10.193,9.888,93.018
0.098,1.125,-0.145,-8.667,15.198,95.459
-0.035,1.265,-0.391,-8.423,20.142,100.220
-0.052,1.252,-0.173,-8.118,28.809,106.995
0.198,1.328,-0.163,-5.981,36.377,109.131
-0.129,1.326,-0.247,-7.874,43.701,116.638
0.468,1.366,-0.210,-11.780,48.950,118.286
-0.240,1.531,-0.440,-15.991,52.246,128.418
0.273,1.504,0.133,-20.203,60.547,137.024
0.148,1.633,0.005,-21.729,66.650,146.362
0.292,1.685,0.322,-22.095,68.970,158.081
0.253,1.763,0.242,-27.893,62.439,167.542
0.491,1.799,0.214,-32.654,52.307,175.842
0.477,1.776,0.046,-40.344,46.509,187.317
0.660,1.827,0.243,-39.490,42.908,192.139
0.640,1.746,0.143,-36.987,31.067,194.275
0.240,1.691,0.031,-39.368,14.648,198.730
0.365,1.624,-0.028,-38.208,-2.136,196.045
0.238,1.475,-0.222,-36.926,-21.912,194.153
-0.168,1.331,-0.415,-36.377,-41.565,195.557
-0.028,1.533,-0.450,-35.278,-61.218,186.096
0.344,1.578,-0.321,-26.184,-66.589,167.725
0.365,1.285,-0.265,-20.203,-61.646,149.048
0.259,1.078,-0.061,-16.541,-41.565,127.747
0.318,0.876,0.029,-7.385,-19.165,102.783
0.240,0.543,-0.175,-0.488,-12.207,83.252
-0.469,0.216,-0.323,-4.333,-4.272,75.195
-0.092,0.414,-0.208,6.348,-1.709,57.373
0.309,0.460,-0.101,2.380,-10.742,42.969
0.343,0.960,-0.054,12.878,-15.198,26.794
0.056,0.288,-0.139,20.996,0.732,-2.747
-0.199,0.159,-0.319,10.376,-1.038,-5.676
0.337,0.424,0.018,23.193,8.789,-20.874
0.420,0.303,0.033,34.912,17.151,-40.344
0.449,0.220,-0.030,41.748,20.874,-59.814
0.382,0.279,-0.079,47.791,25.513,-77.942
0.378,0.338,-0.142,52.673,25.391,-94.055
0.341,0.388,-0.182,55.969,23.865,-107.849
0.241,0.410,-0.173,58.350,23.926,-121.521
0.203,0.440,-0.207,59.387,20.325,-135.071
0.162,0.480,-0.197,60.730,16.602,-148.071
0.132,0.528,-0.156,62.378,14.832,-161.377
0.088,0.564,-0.132,64.453,14.221,-175.232
0.081,0.599,-0.111,66.528,14.526,-188.171
0.116,0.635,-0.115,67.505,14.587,-201.050
0.131,0.674,-0.123,67.139,13.367,-213.806
0.154,0.723,-0.151,64.331,11.230,-225.464
0.168,0.797,-0.149,61.157,11.597,-235.840
0.198,0.827,-0.161,56.152,14.160,-244.751
0.205,0.954,-0.116,53.223,16.296,-252.197
0.179,1.061,-0.089,50.232,18.677,-256.958
0.206,1.170,-0.133,47.058,16.846,-263.123
0.124,1.255,-0.170,41.199,16.296,-270.081
-0.058,1.422,-0.189,38.635,24.292,-274.780
-0.077,1.529,-0.261,36.865,34.180,-277.588
-0.051,1.602,-0.289,32.532,39.490,-282.532
0.121,1.739,-0.282,26.978,37.231,-286.438
0.145,1.943,-0.306,23.437,28.137,-291.138
0.035,2.053,-0.347,18.127,19.043,-294.800
-0.220,2.120,-0.305,11.963,21.973,-290.955
-0.490,2.124,-0.276,7.690,30.518,-285.339
-0.492,2.010,-0.363,5.676,31.189,-276.428
-0.523,1.914,-0.314,1.526,27.100,-265.259
-0.624,1.888,-0.320,-3.540,26.978,-251.770
-0.807,1.958,-0.292,-4.395,27.832,-236.633
-0.913,1.913,-0.274,-1.343,34.729,-219.116
-0.885,1.803,-0.281,2.563,38.757,-197.876
-0.945,1.600,-0.304,5.981,40.161,-172.974
-0.894,1.355,-0.322,4.333,34.302,-148.376
-0.915,1.274,-0.340,0.671,25.696,-121.826
-1.016,1.117,-0.280,-4.150,19.653,-94.727
-1.081,1.070,-0.190,-10.376,15.564,-65.308
-1.042,1.086,-0.112,-13.000,7.690,-33.447
-0.973,1.110,-0.066,-13.916,-2.441,-2.563
-0.888,1.115,-0.064,-13.855,-12.451,24.902
-0.854,1.072,-0.131,-16.479,-22.034,47.485
-0.869,1.097,-0.106,-19.409,-29.541,65.125
-0.737,1.180,-0.118,-23.193,-39.368,78.613
-0.605,1.224,-0.016,-24.597,-57.495,91.248
-0.528,1.173,0.054,-24.658,-70.068,100.037
0.038,1.206,0.249,-18.677,-73.608,89.417
1.331,1.034,0.322,-4.211,-80.750,64.636
2.130,0.707,0.185,-14.893,-76.599,51.880
1.529,1.003,0.360,-25.879,-41.504,56.946
0.809,0.925,0.607,-11.597,-35.828,71.289
-0.329,0.948,0.075,-32.104,-59.082,87.769
-0.773,1.317,0.077,-39.551,-65.796,91.980
-0.484,1.366,-0.041,-51.697,-62.805,97.168
-0.025,1.513,0.140,-54.321,-58.105,103.577
0.211,1.581,0.240,-45.166,-55.237,103.271
-0.049,1.344,0.190,-37.659,-40.894,98.145
-0.236,1.297,-0.073,-31.860,-27.771,99.487
0.115,1.123,-0.103,-29.785,-29.846,98.633
0.390,1.047,-0.325,-34.546,-42.480,93.872
0.642,0.968,-0.220,-34.607,-46.448,87.769
-0.038,1.006,-0.415,-30.273,-55.115,87.341
-0.062,1.061,-0.317,-15.747,-49.438,80.200
-0.230,0.908,-0.161,-6.042,-30.518,69.092
-0.094,0.884,-0.232,-24.475,-12.878,69.153
-0.166,1.225,-0.115,-15.015,-0.732,65.002
0.122,1.109,-0.023,-14.404,10.071,64.270
0.026,1.167,-0.055,-14.832,16.602,63.354
0.319,1.114,0.062,-12.756,19.897,59.387
0.227,0.890,0.058,-17.029,17.700,57.251
-0.031,1.031,-0.092,-18.433,13.367,55.542
0.585,0.954,0.086,-15.198,8.850,44.495
-0.076,0.946,-0.229,-23.376,4.150,42.786
-0.173,1.134,-0.169,-18.066,1.953,41.138
0.691,0.950,0.033,-9.277,2.136,30.151
0.021,0.876,-0.286,-16.479,-5.066,30.945
-0.430,1.226,-0.185,-10.193,-3.479,32.532
0.918,0.760,0.038,-4.089,-0.305,22.278
-0.566,1.036,-0.394,-16.785,-2.930,30.579
0.351,1.092,-0.003,-7.690,6.714,22.522
0.290,0.839,-0.101,-13.367,3.784,22.705
0.030,1.038,0.054,-11.414,8.728,22.278
0.037,0.930,-0.166,-13.489,5.310,19.958
0.224,0.943,-0.021,-10.315,7.629,17.151
0.151,0.989,-0.093,-12.024,7.263,16.052
-0.096,1.027,-0.115,-10.681,10.925,16.907
0.210,0.973,-0.035,-8.606,13.184,14.954
-0.068,0.966,-0.299,-9.827,10.681,17.639
0.339,1.001,0.134,-5.676,15.747,13.611
0.154,0.942,-0.328,-10.071,7.996,15.930
-0.234,1.066,-0.182,-7.385,11.353,20.630
0.293,0.958,-0.029,-7.080,12.085,20.081
-0.052,0.969,-0.220,-6.348,9.216,22.583
0.166,0.927,-0.160,-8.301,9.399,21.118
-0.057,1.052,-0.116,-6.897,8.240,24.292
0.210,0.919,-0.126,-8.728,9.888,22.339
-0.028,1.040,-0.154,-8.850,7.812,24.902
0.042,0.973,-0.054,-9.583,12.268,23.010
0.354,0.903,-0.122,-9.888,11.292,21.667
-0.179,1.103,-0.192,-10.986,9.705,24.536
0.213,0.972,0.042,-9.949,15.747,22.400
0.149,0.968,-0.295,-10.010,9.399,24.292
-0.302,1.038,-0.242,-12.573,7.324,27.527
0.156,1.004,0.041,-11.230,12.634,26.672
0.573,0.912,-0.169,-10.193,11.292,23.682
-0.596,1.107,-0.586,-16.724,2.197,32.410
0.105,1.014,0.321,-12.451,18.677,33.081
0.542,0.882,-0.502,-13.367,7.812,36.865
-0.705,1.160,-0.152,-15.076,9.094,45.044
0.590,0.881,0.049,-18.677,15.991,45.776
-0.123,1.200,-0.448,-11.963,9.033,52.673
0.006,0.973,-0.029,-18.921,14.160,55.969
0.317,1.174,-0.063,-13.550,11.841,60.974
0.052,1.069,-0.074,-16.174,11.902,62.195
-0.082,1.134,-0.222,-17.578,7.935,66.589
0.014,1.088,-0.014,-17.822,8.240,69.519
0.185,1.140,-0.075,-17.151,4.333,72.266
-0.326,1.237,-0.084,-18.005,7.263,77.332
0.238,1.153,-0.081,-18.188,8.728,78.369
-0.418,1.261,-0.254,-18.982,11.292,85.815

0.198,1.499,-0.048,-30.579,36.255,134.766
0.116,1.563,-0.179,-33.508,42.786,139.404
0.328,1.763,0.050,-33.081,48.096,144.653
0.287,1.803,-0.165,-34.424,51.331,149.902
0.099,1.894,-0.123,-35.461,53.711,160.828
0.426,1.700,-0.134,-35.889,55.664,171.082
0.315,1.514,-0.247,-41.931,51.636,175.659
0.165,1.463,-0.100,-47.791,46.631,172.729
-0.148,1.466,-0.156,-48.706,39.673,172.180
-0.262,1.464,-0.258,-46.326,29.541,169.373
-0.161,1.454,-0.413,-45.105,21.240,156.677
-0.027,1.624,-0.187,-33.813,23.254,146.606
0.118,1.271,-0.099,-26.123,32.654,134.460
0.246,1.037,-0.158,-23.865,42.358,117.615
0.289,0.883,-0.126,-18.311,53.467,103.516
0.280,0.636,-0.223,-15.198,57.190,91.064
-0.066,0.424,-0.319,-16.479,52.673,81.909
-0.619,0.338,-0.396,-13.062,47.119,73.730
-0.261,0.454,-0.234,-7.202,44.373,58.044
0.176,0.569,-0.093,-9.094,36.682,42.725
0.104,0.936,-0.069,-5.798,32.837,30.151
0.109,0.474,-0.063,8.423,36.194,9.827
-0.088,0.103,-0.094,2.991,28.809,1.343
-0.014,0.403,0.051,5.127,25.513,-7.324
0.196,0.374,0.084,15.625,24.658,-21.118
0.337,0.259,0.039,21.790,21.179,-37.109
0.315,0.223,-0.008,23.560,14.709,-54.565
0.305,0.267,-0.018,26.245,5.554,-70.923
0.275,0.310,-0.060,28.625,-4.089,-85.205
0.151,0.348,-0.031,29.236,-11.597,-97.717
0.064,0.401,-0.044,30.762,-16.541,-110.168
0.042,0.424,-0.067,32.288,-21.057,-123.474
0.031,0.466,-0.061,34.912,-25.330,-135.925
0.026,0.462,-0.062,36.316,-28.931,-148.071
0.049,0.498,-0.061,37.292,-31.372,-160.095
0.071,0.522,-0.060,38.513,-31.982,-173.401
0.087,0.560,-0.079,38.940,-31.494,-185.547
0.100,0.626,-0.074,40.405,-30.396,-196.167
0.097,0.679,-0.086,42.114,-27.710,-207.092
0.089,0.725,-0.112,43.091,-24.109,-216.736
0.084,0.796,-0.123,43.640,-18.982,-225.586
0.053,0.881,-0.141,43.579,-11.292,-233.032
0.035,0.971,-0.148,43.030,-1.709,-238.831
0.017,1.060,-0.149,41.870,10.681,-242.676
0.040,1.175,-0.145,41.992,21.240,-247.009
-0.037,1.283,-0.104,42.969,33.691,-251.953
-0.134,1.391,-0.110,45.288,48.462,-254.639
-0.110,1.451,-0.185,45.654,60.120,-256.165
-0.023,1.525,-0.215,41.016,67.688,-259.705
0.053,1.613,-0.224,33.325,65.735,-266.052
0.189,1.749,-0.205,27.344,58.105,-269.043
0.193,1.872,-0.164,22.461,48.950,-272.644
0.113,1.923,-0.180,18.921,39.856,-273.865
-0.030,1.978,-0.094,16.357,38.696,-268.372
-0.211,2.028,-0.080,13.977,36.377,-264.526
-0.371,2.012,-0.039,11.292,38.879,-256.531
-0.546,2.000,-0.095,6.470,33.936,-248.169
-0.606,1.980,-0.131,4.944,26.978,-237.366
-0.608,1.921,-0.116,4.089,16.174,-223.450
-0.606,1.737,-0.152,6.531,2.258,-207.275
-0.650,1.535,-0.117,5.798,-11.902,-189.209
-0.653,1.507,-0.160,3.906,-26.306,-169.556
-0.710,1.436,-0.194,3.174,-38.208,-148.315
-0.823,1.324,-0.242,0.183,-43.091,-127.686
-0.932,1.249,-0.281,-2.014,-41.504,-104.370
-1.045,1.148,-0.210,-3.418,-38.330,-75.928
-1.075,1.065,-0.176,-6.165,-36.682,-44.983
-0.974,1.049,-0.106,-8.911,-36.804,-14.221
-0.762,1.064,-0.159,-11.902,-43.762,12.634
-0.607,1.104,-0.166,-14.343,-56.580,35.217
-0.575,1.108,-0.219,-19.165,-71.411,51.392
-0.629,1.098,-0.193,-22.644,-83.374,64.331
-0.694,1.071,-0.225,-25.757,-95.886,77.271
-0.708,1.102,-0.242,-26.489,-102.295,86.365
-0.437,1.109,-0.229,-26.855,-87.585,86.670
0.354,1.154,-0.124,-25.024,-69.824,82.764
1.095,1.217,-0.063,-26.489,-46.082,79.773
1.521,1.036,0.164,-20.508,-12.634,69.885
1.005,0.695,0.433,-26.672,1.343,67.078
-0.028,0.852,0.135,-31.738,-14.465,74.219
-0.044,1.098,0.255,-29.358,-23.010,83.191
-0.347,1.221,-0.126,-37.048,-43.091,91.736
0.085,1.327,0.228,-42.664,-41.077,95.459
-0.134,1.391,0.220,-45.166,-36.560,93.872
-0.003,1.318,0.130,-38.452,-32.166,89.111
0.104,1.199,0.003,-38.208,-26.978,84.167
0.260,1.195,0.035,-33.569,-24.109,83.191
0.257,1.079,-0.135,-35.767,-31.189,83.435
0.393,0.977,-0.248,-40.466,-45.288,79.895
0.202,1.056,-0.396,-39.429,-58.044,74.402
0.322,1.074,-0.153,-27.039,-56.213,65.918
-0.174,1.148,-0.064,-5.249,-46.021,62.134
-0.251,0.669,-0.458,-25.940,-28.381,65.002
0.041,1.159,-0.235,-24.963,-12.512,60.974
-0.008,1.082,-0.092,-20.691,4.395,58.044
-0.078,1.132,-0.126,-21.851,16.418,57.739
0.177,1.113,0.009,-20.325,25.757,55.359
-0.061,1.095,0.012,-21.790,30.457,54.565
0.260,1.073,0.188,-16.418,29.419,48.096
0.341,0.793,0.056,-25.024,23.193,40.344
0.005,1.044,-0.064,-29.114,15.930,37.781
0.612,0.977,0.047,-24.048,8.301,27.466
-0.039,0.993,-0.215,-28.625,2.136,27.039
-0.195,1.115,-0.224,-22.400,-2.625,26.123
0.604,0.982,-0.038,-12.085,-0.793,15.747
0.124,0.835,-0.277,-16.296,2.319,16.113
-0.658,1.238,-0.225,-12.024,5.188,19.836
0.989,0.860,0.107,-4.578,9.094,9.094
-0.542,0.977,-0.371,-17.090,8.362,16.052
0.279,1.113,-0.041,-5.188,10.132,10.071
0.435,0.809,-0.021,-12.146,7.141,7.446
-0.035,1.017,-0.029,-9.399,7.324,8.545
0.037,0.910,-0.293,-11.780,5.127,5.859
0.243,0.974,-0.087,-7.996,8.606,5.371
0.287,1.002,-0.077,-9.460,9.216,4.395
0.010,0.971,-0.122,-9.583,7.812,5.615
0.203,0.956,-0.102,-7.935,8.362,4.456
0.145,0.933,-0.224,-9.827,7.812,7.141
0.128,1.102,0.041,-5.249,10.986,6.897
0.346,0.793,-0.276,-9.460,12.268,7.202
-0.220,1.080,-0.195,-9.094,13.916,13.489
0.214,0.947,-0.042,-7.690,15.625,13.489
0.135,0.933,-0.153,-9.399,14.893,16.541
0.238,0.956,-0.172,-9.460,14.343,17.273
-0.035,0.989,-0.218,-12.207,12.756,21.179
0.267,0.950,-0.090,-10.559,14.343,22.156
0.109,1.008,-0.141,-12.939,12.451,25.940
0.012,0.964,-0.201,-13.123,11.902,27.222
0.466,0.996,0.003,-10.620,13.550,25.574
-0.067,0.985,-0.250,-14.709,10.315,29.480
0.063,1.048,-0.080,-11.108,11.597,29.114
0.455,0.917,-0.160,-12.207,10.132,28.503
-0.226,1.032,-0.250,-14.526,8.972,33.386
-0.153,1.055,-0.125,-13.123,9.888,35.156
0.590,0.956,-0.007,-9.521,14.099,31.555
-0.025,0.968,-0.444,-15.198,11.841,36.194
-0.697,1.169,-0.067,-12.817,15.808,43.945
1.113,0.851,0.121,-10.986,15.381,37.781
-0.777,1.173,-0.551,-14.954,12.451,49.927
0.255,0.911,0.038,-13.184,16.541,50.781
0.407,1.067,-0.254,-12.939,13.794,52.734
-0.120,0.995,-0.110,-11.597,18.311,58.472
0.049,1.021,-0.144,-14.526,15.320,61.890
0.096,1.086,-0.171,-11.963,15.015,62.805
0.157,1.038,-0.120,-14.404,12.817,65.247
-0.105,1.104,-0.102,-15.503,8.728,69.214
0.172,1.050,0.004,-14.648,7.446,69.946
-0.267,1.131,-0.422,-15.076,4.028,75.256
0.391,1.068,0.198,-14.893,5.981,75.867
-0.010,1.165,-0.494,-16.479,-1.709,79.346
-0.348,1.205,-0.201,-17.761,1.709,86.670
0.282,1.212,-0.037,-16.418,1.953,87.891
-0.216,1.243,-0.301,-16.479,4.700,93.140
-0.111,1.223,-0.156,-20.691,8.423,96.985
0.018,1.278,-0.063,-18.921,12.573,100.159
-0.014,1.256,-0.179,-20.630,14.343,102.295
-0.166,1.349,-0.250,-21.118,13.367,107.056
0.224,1.364,0.024,-20.752,17.639,109.070
-0.053,1.353,-0.399,-24.353,18.494,113.525
-0.147,1.462,0.019,-22.949,26.794,120.361
0.237,1.370,0.005,-22.461,36.865,123.535
-0.039,1.466,-0.181,-25.024,36.865,134.399
0.001,1.583,-0.013,-28.320,38.086,145.020
0.516,1.689,0.152,-27.161,38.025,148.743
0.425,1.772,-0.150,-32.715,31.311,157.776
0.152,1.855,-0.151,-35.339,25.635,172.424
0.876,1.669,0.010,-39.856,27.710,171.814
0.058,1.680,-0.204,-48.706,28.625,177.612
-0.026,1.731,0.125,-47.546,35.706,176.575
0.136,1.621,-0.102,-49.438,36.865,173.340
-0.037,1.627,-0.077,-42.786,36.682,172.974
-0.126,1.430,-0.292,-42.236,35.645,169.189
0.208,1.597,-0.245,-34.546,35.156,158.020
0.501,1.404,-0.196,-20.874,34.058,147.400
0.525,1.078,-0.120,-15.320,38.025,131.531
0.544,0.892,-0.154,-10.986,40.405,113.464
0.594,0.682,-0.229,0.000,38.208,94.360
0.177,0.294,-0.418,-7.080,28.748,80.322
-0.591,0.241,-0.424,-7.996,17.944,70.862
-0.065,0.581,-0.030,-11.780,10.803,59.998
0.180,1.180,-0.050,0.854,13.794,38.818
0.199,0.429,-0.106,21.484,23.010,5.005
-0.226,0.036,-0.187,13.000,18.311,-4.883
-0.018,0.365,0.031,6.348,21.545,-14.648
0.370,0.535,0.080,22.339,30.762,-30.396
0.440,0.353,0.067,31.433,31.982,-48.767
0.423,0.275,-0.038,36.072,32.227,-66.528
0.410,0.276,-0.081,39.978,27.832,-84.656
0.408,0.325,-0.087,44.434,22.156,-100.220
0.326,0.355,-0.115,47.668,16.724,-114.685
0.211,0.397,-0.135,50.354,9.583,-128.662
0.098,0.435,-0.114,52.612,4.822,-142.761
0.045,0.476,-0.111,54.810,1.953,-154.846
0.036,0.506,-0.106,56.946,0.122,-167.297
0.073,0.512,-0.107,57.068,-2.747,-180.603
0.110,0.545,-0.101,56.641,-5.005,-193.970
0.146,0.608,-0.110,57.617,-7.080,-207.703
0.134,0.667,-0.120,57.190,-8.057,-220.947
0.110,0.750,-0.135,56.396,-6.775,-232.544
0.114,0.782,-0.161,53.894,-3.052,-243.652
0.122,0.871,-0.137,49.927,2.991,-251.587
0.092,0.989,-0.094,47.485,8.484,-257.690
0.102,1.064,-0.117,44.006,12.634,-261.353
0.147,1.157,-0.151,40.649,14.038,-265.991
0.031,1.258,-0.110,36.743,18.982,-271.179
-0.059,1.401,-0.119,35.156,28.259,-273.865
-0.055,1.502,-0.185,33.020,31.433,-278.320
0.000,1.580,-0.204,27.893,31.250,-283.081
0.130,1.756,-0.233,23.865,23.010,-287.231
0.165,1.893,-0.253,20.264,8.362,-292.053
0.059,1.994,-0.256,15.869,-4.578,-295.776
-0.123,2.037,-0.261,10.925,-14.709,-296.143
-0.425,2.048,-0.180,9.399,-12.329,-291.565
-0.599,2.008,-0.158,6.348,-5.554,-284.912
-0.692,2.052,-0.170,5.066,2.625,-272.217
-0.744,2.074,-0.224,5.493,5.737,-256.958
-0.785,2.026,-0.237,6.104,4.700,-241.272
-0.838,1.978,-0.240,6.287,5.127,-221.191
-0.926,1.838,-0.316,6.836,3.357,-199.402
-0.909,1.678,-0.346,5.005,-1.831,-174.683
-0.946,1.514,-0.375,-0.183,-10.620,-148.315
-1.214,1.394,-0.353,-3.662,-10.559,-118.774
-1.557,1.270,-0.272,-7.080,-1.526,-83.740
-1.670,1.174,-0.173,-7.874,2.869,-42.114
-1.387,1.050,-0.091,-10.315,0.305,-0.366
-0.947,1.105,-0.132,-12.146,-11.597,35.400
-0.617,1.128,-0.203,-15.503,-29.114,61.035
-0.597,1.177,-0.240,-17.456,-47.729,80.811
-0.731,1.135,-0.117,-18.066,-60.791,97.534
-0.790,1.056,-0.103,-22.827,-66.162,105.896
0.088,1.196,-0.096,-18.921,-67.627,91.309
1.322,1.042,0.143,-7.202,-69.702,69.336
1.857,0.853,-0.047,-24.109,-55.603,61.646
1.509,1.038,0.204,-12.390,-32.104,62.195
0.536,0.737,0.144,-13.977,-21.423,74.341
-0.442,1.015,0.193,-14.832,-23.437,92.102
-0.720,1.226,0.048,-15.137,-11.597,110.107
-0.080,1.253,0.076,-28.870,-18.677,113.892

0.088,1.252,0.005,-19.531,14.587,99.304
-0.203,1.301,-0.360,-18.677,17.029,103.516
0.283,1.275,0.074,-19.226,25.452,106.262
-0.093,1.361,-0.424,-22.339,20.752,112.427
-0.161,1.407,-0.115,-23.010,24.841,118.896
0.103,1.423,-0.158,-22.888,32.043,122.009
0.004,1.510,-0.001,-21.057,40.466,131.104
0.028,1.499,-0.093,-24.231,44.189,140.015
0.331,1.619,0.031,-26.794,43.884,148.315
0.322,1.739,-0.063,-30.334,39.795,156.189
0.264,1.890,-0.055,-32.654,36.255,166.016
0.763,1.802,-0.023,-33.691,39.246,173.157
0.693,1.674,-0.272,-40.283,32.898,181.213
0.408,1.701,-0.078,-47.852,28.137,180.725
0.231,1.671,-0.112,-54.626,25.513,177.979
-0.031,1.708,-0.145,-53.528,20.264,180.786
-0.128,1.630,-0.253,-48.645,14.465,179.687
-0.036,1.507,-0.269,-42.175,12.085,171.753
0.224,1.590,-0.300,-35.828,5.981,159.607
0.307,1.452,-0.261,-23.315,1.953,148.926
0.342,1.063,-0.097,-22.949,10.620,130.127
0.376,0.866,-0.059,-21.790,27.039,111.877
0.447,0.739,-0.105,-11.292,37.476,96.619
0.071,0.397,-0.235,-8.606,39.368,84.106
-0.634,0.197,-0.431,-10.498,35.461,78.674
-0.265,0.464,-0.207,-6.348,32.959,66.956
0.252,0.969,-0.055,-1.831,26.489,55.786
0.156,0.472,-0.215,14.893,33.875,21.423
-0.372,0.111,-0.267,9.094,29.236,8.118
-0.042,0.300,-0.124,0.671,25.757,-0.183
0.321,0.449,0.054,15.747,32.715,-15.564
0.394,0.309,0.058,26.306,33.081,-32.349
0.369,0.252,-0.011,31.921,31.921,-49.500
0.360,0.290,-0.026,37.292,26.306,-66.467
0.356,0.316,-0.010,42.664,20.081,-84.045
0.281,0.324,-0.011,46.143,15.686,-98.999
0.209,0.348,-0.032,48.401,9.888,-112.915
0.164,0.383,-0.072,50.537,2.563,-125.977
0.144,0.409,-0.081,51.941,-3.052,-138.611
0.109,0.436,-0.077,53.406,-8.057,-152.100
0.062,0.483,-0.053,55.420,-11.719,-164.062
0.077,0.495,-0.059,56.030,-15.442,-177.612
0.114,0.543,-0.051,56.580,-18.799,-191.162
0.113,0.614,-0.061,57.678,-20.691,-204.102
0.097,0.677,-0.070,58.044,-21.484,-216.858
0.151,0.713,-0.104,56.763,-20.935,-228.088
0.180,0.792,-0.118,55.237,-20.874,-237.610
0.174,0.881,-0.123,52.917,-18.982,-245.789
0.132,0.995,-0.106,50.781,-14.526,-251.099
0.144,1.097,-0.086,49.377,-11.414,-254.761
0.176,1.178,-0.128,46.753,-9.766,-259.949
0.054,1.324,-0.101,45.959,-3.235,-265.320
-0.042,1.426,-0.188,44.983,6.409,-268.555
0.005,1.519,-0.250,44.861,13.916,-270.508
0.055,1.597,-0.285,40.833,16.296,-275.696
0.144,1.713,-0.271,35.828,13.794,-281.311
0.233,1.887,-0.267,31.494,4.272,-285.706
0.218,2.002,-0.356,28.503,-10.071,-289.368
0.103,2.093,-0.264,23.804,-22.400,-289.185
-0.178,2.185,-0.170,22.095,-22.095,-282.104
-0.517,2.113,-0.186,21.179,-12.390,-275.208
-0.657,2.024,-0.238,14.404,-0.061,-265.442
-0.780,2.063,-0.395,10.193,1.221,-252.747
-0.753,2.040,-0.477,6.165,5.432,-237.610
-0.762,2.029,-0.505,9.155,5.920,-218.140
-0.878,1.846,-0.471,13.977,6.653,-197.327
-1.019,1.600,-0.476,12.390,13.489,-179.077
-1.174,1.499,-0.496,15.564,22.095,-156.555
-1.371,1.333,-0.474,14.404,34.058,-128.723
-1.393,1.209,-0.484,12.695,37.537,-96.558
-1.291,1.070,-0.458,7.385,34.790,-61.768
-1.133,0.997,-0.431,-0.610,28.015,-27.222
-0.885,1.013,-0.311,-5.859,16.541,4.944
-0.721,0.966,-0.185,-12.146,2.014,30.701
-0.580,1.051,-0.125,-17.944,-15.625,49.500
-0.587,1.141,-0.093,-19.287,-35.706,67.261
-0.732,1.126,0.023,-20.386,-53.589,83.191
-0.703,1.125,-0.016,-24.414,-68.665,93.872
-0.316,1.182,0.181,-24.170,-73.547,89.417
0.732,1.061,0.215,-22.400,-68.237,71.411
1.800,0.979,0.159,-30.762,-57.190,54.504
1.579,1.048,0.322,-20.081,-28.076,62.012
0.729,0.875,0.496,-14.343,-3.052,78.308
-0.228,0.944,0.081,-22.644,-20.020,89.722
-0.556,1.217,0.024,-32.898,-32.593,95.398
-0.236,1.412,0.116,-45.532,-25.574,99.609
-0.135,1.566,0.195,-46.570,-22.156,100.952
0.030,1.420,-0.089,-39.612,-25.818,97.229
0.185,1.257,-0.128,-38.147,-27.283,91.431
0.252,1.331,-0.205,-32.471,-24.414,88.806
0.296,1.222,-0.035,-29.175,-29.846,85.938
-0.008,1.109,-0.374,-32.227,-46.143,87.952
0.278,1.047,-0.183,-28.809,-55.237,81.055
0.114,1.027,-0.265,-25.818,-56.396,72.632
0.063,1.080,-0.102,-13.733,-43.274,65.674
-0.203,0.965,-0.182,-7.751,-24.414,61.523
-0.122,1.068,-0.026,4.578,-10.254,54.565
-0.189,0.927,-0.178,-15.564,3.235,54.504
0.494,1.151,0.184,-11.719,11.658,46.570
0.060,1.039,-0.003,-19.531,18.738,45.227
0.153,1.176,0.135,-15.259,20.386,43.640
0.396,0.837,0.078,-20.020,15.259,35.767
-0.104,1.000,-0.121,-26.367,10.559,36.194
0.142,1.118,-0.039,-20.874,8.240,31.494
0.748,0.918,-0.001,-17.639,8.057,21.362
-0.316,0.922,-0.365,-26.062,5.798,28.137
0.035,1.323,-0.099,-8.667,6.714,27.832
0.868,0.589,-0.167,-10.498,10.803,20.447
-0.701,1.106,-0.333,-14.343,15.198,30.823
0.725,1.009,-0.030,-2.747,16.541,21.057
0.064,0.817,-0.206,-13.855,20.142,23.254
0.180,1.018,0.044,-10.681,21.240,23.315
0.228,0.941,-0.088,-14.771,17.883,19.470
0.259,0.930,-0.051,-13.489,16.663,18.982
0.228,0.930,-0.079,-16.296,11.536,17.822
0.045,1.013,-0.120,-15.320,11.780,17.517
0.272,0.985,-0.006,-11.414,14.160,16.724
-0.184,0.917,-0.293,-15.442,13.672,19.836
0.512,1.056,0.120,-7.080,19.226,15.442
0.084,0.857,-0.253,-14.832,14.038,18.860
-0.137,1.075,-0.141,-10.986,14.709,22.278
0.333,0.963,-0.100,-10.498,15.137,21.179
0.027,0.987,-0.142,-10.559,15.015,25.391
0.199,0.945,-0.167,-10.498,14.282,24.841
0.020,1.030,-0.099,-10.132,13.123,27.649
0.267,0.911,-0.133,-10.925,12.817,26.306
0.052,1.005,-0.132,-12.146,10.437,28.809
0.120,0.999,-0.079,-10.498,11.536,26.184
0.397,0.915,-0.194,-11.719,10.254,24.658
-0.191,1.093,-0.121,-11.230,10.376,28.625
0.286,0.957,-0.019,-8.789,13.794,24.780
0.165,0.966,-0.272,-10.620,10.925,27.527
-0.262,1.023,-0.239,-12.024,9.644,31.616
0.168,1.012,0.046,-8.545,12.573,28.748
0.653,0.900,-0.180,-9.583,11.047,25.330
-0.544,1.064,-0.558,-15.015,5.310,34.180
0.006,1.049,0.325,-8.301,14.160,31.311
0.600,0.796,-0.554,-14.099,7.812,31.860
-0.721,1.212,-0.080,-11.292,12.451,41.138
0.570,0.820,0.006,-15.991,12.390,36.316
-0.065,1.167,-0.402,-12.085,10.437,43.823
0.052,0.933,-0.142,-15.381,12.817,45.227
0.196,1.095,-0.065,-14.221,11.597,49.377
0.138,1.066,-0.116,-12.756,14.038,50.659
-0.036,1.062,-0.294,-13.550,12.268,56.641
0.064,1.042,-0.066,-13.489,13.855,60.120
0.214,1.001,-0.163,-13.367,10.925,63.538
-0.209,1.073,-0.005,-13.367,11.963,69.092
0.379,0.982,-0.154,-14.160,6.958,68.298
-0.301,1.154,-0.276,-15.198,1.343,76.660
0.089,1.113,0.086,-15.503,2.563,79.529
0.000,1.203,-0.349,-11.414,-0.854,83.679
-0.038,1.143,-0.070,-15.503,1.892,88.074
-0.087,1.263,-0.234,-16.663,0.916,92.224
0.143,1.241,-0.061,-16.602,4.822,95.093
-0.168,1.296,-0.262,-18.738,6.409,100.952
0.047,1.274,0.001,-18.311,12.756,104.675
0.255,1.246,-0.133,-18.555,10.864,106.750
-0.208,1.327,-0.265,-21.606,8.362,113.220
0.213,1.344,-0.007,-21.606,11.230,114.258
0.081,1.361,-0.311,-22.644,12.512,119.324
-0.246,1.420,-0.191,-27.649,13.611,127.625
0.178,1.524,0.117,-25.757,23.926,129.517
0.354,1.521,-0.105,-25.269,30.273,133.362
-0.178,1.634,-0.395,-35.950,27.222,145.630
0.446,1.886,0.201,-34.790,35.339,150.513
0.505,1.844,-0.215,-36.255,36.438,155.579
0.279,1.908,-0.088,-35.034,40.283,171.265
0.656,1.627,-0.134,-38.696,43.213,176.453
0.196,1.579,-0.183,-45.349,43.518,178.528
0.052,1.544,-0.078,-48.706,44.922,173.340
-0.098,1.560,-0.169,-49.255,41.321,170.959
-0.181,1.526,-0.276,-44.250,35.400,168.335
-0.037,1.408,-0.440,-43.396,28.381,158.386
0.179,1.539,-0.221,-36.560,30.151,146.973
0.376,1.319,-0.220,-25.635,30.212,136.475
0.319,0.969,-0.068,-23.315,41.260,122.070
0.304,0.800,-0.091,-21.851,53.284,106.812
0.399,0.638,-0.122,-13.489,52.124,93.262
-0.159,0.340,-0.335,-12.878,45.532,80.139
-0.442,0.317,-0.313,-8.789,40.283,66.956
0.210,0.522,-0.123,-4.639,35.095,49.255
0.362,0.762,0.004,-7.263,27.283,35.034
0.243,0.720,-0.059,8.789,31.494,12.024
-0.055,0.181,-0.186,8.179,29.663,-0.122
0.108,0.374,0.014,4.456,25.879,-8.667
0.354,0.412,0.110,16.357,26.306,-23.621
0.477,0.265,0.103,24.658,24.170,-41.016
0.443,0.257,0.052,29.907,19.226,-59.753
0.395,0.312,0.013,34.424,11.230,-78.125
0.399,0.364,-0.008,37.720,2.441,-94.421
0.333,0.400,-0.026,39.856,-6.653,-109.924
0.251,0.453,-0.078,42.297,-14.954,-123.962
0.180,0.501,-0.114,45.044,-21.484,-137.451
0.117,0.519,-0.100,47.363,-25.452,-150.696
0.127,0.543,-0.109,49.988,-28.931,-164.062
0.107,0.579,-0.070,53.467,-30.334,-177.368
0.124,0.590,-0.094,55.359,-32.166,-189.941
0.152,0.645,-0.100,56.763,-34.973,-202.576
0.125,0.676,-0.111,55.542,-35.767,-215.515
0.181,0.770,-0.114,56.458,-31.189,-225.708
0.188,0.786,-0.117,53.589,-26.062,-239.624
0.192,0.907,-0.097,55.664,-24.536,-247.437
0.152,0.994,-0.106,57.495,-20.569,-252.625
0.115,1.094,-0.083,57.800,-12.146,-256.714
0.134,1.161,-0.119,55.786,-3.723,-261.658
0.136,1.254,-0.149,53.894,6.104,-267.456
-0.013,1.392,-0.126,53.284,20.874,-272.705
-0.030,1.506,-0.182,53.406,37.415,-274.597
0.038,1.582,-0.233,52.612,48.889,-276.794
0.117,1.682,-0.229,47.241,49.438,-282.349
0.259,1.853,-0.233,41.260,41.748,-287.109
0.184,2.014,-0.245,36.560,29.846,-293.152
0.131,2.116,-0.297,30.762,19.653,-297.180
-0.099,2.143,-0.178,26.794,21.240,-291.260
-0.416,2.122,-0.121,22.522,26.550,-284.485
-0.480,2.034,-0.142,17.639,27.161,-276.428
-0.549,1.998,-0.136,10.010,25.208,-265.930
-0.703,2.100,-0.192,4.395,25.452,-252.930
-0.851,2.044,-0.240,1.221,26.794,-235.779
-1.029,1.939,-0.408,-1.648,23.560,-210.999
-1.072,1.808,-0.509,-2.502,9.216,-185.913
-1.169,1.597,-0.469,-3.906,-4.150,-158.875
-1.466,1.403,-0.457,-7.568,-8.301,-129.089
-1.845,1.318,-0.312,-6.042,-4.272,-91.919
-1.821,1.138,-0.246,-4.883,-6.836,-48.767
-1.237,0.994,-0.266,-11.902,-23.987,-6.958
-0.677,1.109,-0.265,-19.104,-49.500,27.405
-0.510,1.189,-0.262,-23.987,-71.899,52.917
-0.786,1.175,-0.148,-26.611,-80.627,73.547
-1.062,1.109,-0.091,-26.733,-80.017,91.797
-1.113,1.113,-0.059,-24.475,-77.148,105.530
-0.543,1.191,-0.021,-21.057,-66.406,99.609
0.965,1.241,0.176,-3.479,-60.364,78.125
1.850,0.867,0.094,-18.494,-41.809,70.251
1.621,1.055,0.223,-16.296,-11.841,66.467
0.804,0.844,0.320,-10.193,-9.033,76.721
-0.122,0.907,0.234,-19.409,-27.039,89.172

0.115,0.466,-0.015,41.809,-26.672,-125.793
0.056,0.486,-0.030,45.593,-33.691,-138.184
0.052,0.501,-0.028,48.767,-39.795,-151.306
0.062,0.528,-0.022,51.575,-45.227,-164.612
0.074,0.559,-0.042,53.833,-49.316,-177.551
0.128,0.584,-0.057,55.481,-53.528,-190.247
0.148,0.634,-0.078,57.983,-56.519,-202.759
0.146,0.688,-0.115,60.181,-56.946,-214.966
0.141,0.725,-0.117,61.279,-54.138,-224.426
0.143,0.777,-0.150,61.340,-46.753,-235.840
0.166,0.847,-0.160,58.960,-43.518,-245.667
0.143,0.986,-0.148,62.622,-38.757,-247.986
0.083,1.046,-0.149,63.660,-29.053,-250.549
0.101,1.172,-0.174,65.430,-17.883,-253.479
0.026,1.297,-0.137,69.885,-4.150,-257.507
-0.103,1.380,-0.177,71.411,11.230,-260.986
-0.041,1.498,-0.255,71.838,23.804,-263.550
0.009,1.535,-0.287,68.176,31.189,-267.456
0.073,1.631,-0.312,60.974,34.729,-273.193
0.159,1.774,-0.304,54.016,32.410,-277.832
0.207,1.955,-0.342,49.500,24.475,-282.104
0.088,1.996,-0.244,45.654,20.264,-283.447
-0.085,2.054,-0.175,39.856,19.592,-280.212
-0.235,2.110,-0.181,34.424,19.592,-274.719
-0.459,2.130,-0.192,27.283,20.203,-268.799
-0.615,2.115,-0.259,19.409,20.691,-259.583
-0.768,2.068,-0.346,10.498,21.484,-250.122
-0.960,1.965,-0.357,4.028,24.048,-235.535
-1.109,1.849,-0.490,0.244,22.217,-213.074
-1.168,1.634,-0.553,-3.113,17.639,-189.026
-1.185,1.550,-0.506,-3.296,8.118,-164.368
-1.414,1.415,-0.406,-5.188,4.944,-134.705
-1.666,1.343,-0.393,-4.089,8.667,-101.685
-1.666,1.273,-0.386,2.991,14.526,-63.416
-1.361,1.076,-0.331,5.310,7.019,-23.865
-0.899,1.007,-0.352,-2.930,-7.629,8.789
-0.465,1.030,-0.415,-13.550,-24.414,32.043
-0.355,1.118,-0.268,-20.142,-42.297,51.758
-0.458,1.140,-0.245,-23.682,-60.486,69.885
-0.681,1.105,-0.091,-24.536,-73.669,82.764
-0.678,1.033,-0.139,-27.527,-77.820,92.346
-0.183,1.190,0.269,-17.700,-72.510,88.684
0.894,0.929,0.221,-25.208,-63.110,73.792
1.591,1.150,0.444,-23.560,-43.396,64.941
1.295,0.932,0.469,-17.944,-12.146,69.641
0.276,0.910,0.248,-24.841,-18.372,78.491
-0.079,1.122,0.211,-23.560,-32.593,90.698
-0.254,1.252,-0.105,-35.583,-42.664,102.722
-0.044,1.435,0.214,-42.358,-38.635,105.347
0.231,1.348,0.449,-44.556,-36.316,100.159
-0.431,1.115,-0.402,-55.847,-52.063,101.257
0.255,1.370,-0.132,-46.997,-45.105,93.079
-0.150,1.185,-0.089,-41.016,-41.809,92.468
0.029,1.295,-0.203,-35.706,-44.250,90.332
0.359,1.017,-0.088,-36.560,-46.814,85.144
0.267,1.014,-0.256,-37.842,-56.274,79.285
0.157,1.072,-0.151,-25.635,-55.359,71.533
-0.075,0.898,-0.194,-23.010,-40.039,62.988
-0.156,1.103,-0.047,-9.460,-23.071,57.800
-0.199,0.795,-0.296,-9.277,-12.329,49.683
0.135,1.181,-0.071,-28.625,-4.089,51.880
0.114,1.319,0.109,-18.005,7.141,48.767
0.335,0.964,0.066,-21.729,14.099,48.828
-0.313,1.055,-0.108,-26.672,18.188,52.307
0.348,1.096,0.084,-20.020,17.517,46.204
0.168,0.899,-0.096,-24.536,15.747,39.551
0.186,1.002,-0.076,-22.522,15.442,35.706
0.069,1.034,-0.214,-21.362,11.169,33.386
0.303,1.023,-0.027,-16.174,11.108,30.396
0.039,0.955,-0.197,-18.005,11.719,29.724
0.128,1.064,-0.146,-12.817,14.465,26.978
0.519,0.881,-0.048,-9.705,17.395,22.949
-0.116,0.973,-0.167,-13.428,17.090,25.208
0.366,1.017,-0.036,-7.202,17.944,19.714
0.297,0.844,-0.080,-11.597,14.221,18.188
-0.193,0.996,-0.192,-15.259,9.766,20.752
0.113,1.012,-0.043,-12.085,10.925,16.296
0.673,0.868,0.016,-11.414,11.292,9.949
-0.330,0.912,-0.330,-21.545,4.700,18.616
-0.196,1.193,-0.001,-13.428,14.343,18.188
0.881,0.754,-0.073,-14.709,12.268,11.108
-0.612,1.034,-0.275,-21.912,8.057,23.804
0.346,1.032,-0.060,-13.733,19.592,14.221
0.266,0.860,-0.178,-16.418,12.268,18.433
0.027,1.059,0.037,-14.160,18.616,20.752
0.036,0.964,-0.274,-15.320,19.470,19.897
0.201,0.977,-0.080,-13.184,22.095,21.057
0.220,0.950,-0.110,-15.564,22.827,20.386
-0.003,1.010,-0.142,-15.991,21.423,21.851
0.196,0.963,-0.047,-15.808,21.912,20.325
0.020,0.942,-0.322,-17.822,16.785,22.766
0.202,1.053,0.139,-12.878,19.897,20.447
0.229,0.890,-0.411,-16.663,15.259,20.508
-0.282,1.081,-0.198,-15.320,13.245,25.024
0.215,0.981,0.028,-14.099,16.174,23.376
-0.048,1.026,-0.362,-13.184,12.817,26.733
0.176,0.994,-0.151,-13.245,14.038,26.001
-0.094,1.054,-0.278,-13.855,12.512,29.541
0.209,0.969,-0.129,-12.146,15.015,29.541
0.036,1.020,-0.277,-13.245,14.954,33.081
0.035,0.984,-0.122,-13.367,17.212,34.485
0.402,0.949,-0.126,-13.428,17.639,34.729
-0.169,1.058,-0.279,-16.052,16.357,41.016
0.246,0.970,0.047,-14.771,18.311,43.091
0.237,0.991,-0.341,-15.320,13.733,47.058
-0.258,1.058,-0.281,-17.395,11.475,55.603
0.190,1.075,0.051,-15.259,14.099,59.265
0.577,1.041,-0.182,-11.414,11.780,58.655
-0.568,1.074,-0.634,-18.372,7.263,67.200
0.057,1.153,0.470,-14.709,14.954,71.289
0.466,1.066,-0.462,-12.146,4.578,70.923
-0.892,1.186,-0.178,-15.930,7.019,82.947
0.695,1.045,0.180,-17.578,4.578,80.627
-0.303,1.253,-0.616,-11.719,2.563,87.280
0.042,1.102,0.003,-19.531,7.507,89.600
0.148,1.314,-0.175,-14.832,7.080,92.773
-0.061,1.206,-0.138,-17.090,13.672,93.994
-0.185,1.303,-0.385,-20.020,14.099,97.595
-0.023,1.265,-0.070,-18.738,22.156,101.074
0.155,1.233,-0.126,-19.104,22.888,103.577
-0.309,1.350,-0.179,-19.958,25.635,109.253
0.243,1.305,-0.095,-20.630,27.588,109.497
-0.244,1.417,-0.375,-23.926,23.499,117.554
0.000,1.491,0.112,-23.865,32.410,120.972
-0.034,1.508,-0.133,-22.766,39.551,127.258
0.126,1.521,0.019,-24.963,46.814,138.672
0.104,1.563,-0.052,-30.518,48.584,146.240
0.374,1.661,0.129,-31.250,48.340,152.466
0.364,1.728,0.014,-34.668,44.128,159.607
0.371,1.822,0.015,-36.621,38.208,167.908
0.723,1.659,-0.015,-39.490,33.936,173.584
0.423,1.609,-0.114,-44.617,29.297,176.636
0.280,1.619,0.014,-45.898,26.733,174.316
0.142,1.531,-0.166,-48.096,19.226,174.622
-0.279,1.535,-0.276,-46.814,10.376,173.645
-0.303,1.582,-0.312,-44.189,2.930,165.894
0.230,1.640,-0.331,-32.349,-4.089,155.151
0.339,1.318,-0.166,-24.414,2.197,140.930
0.173,1.042,-0.156,-24.414,15.259,124.634
0.398,0.915,-0.143,-16.541,28.564,108.887
0.512,0.617,-0.110,-7.019,34.912,93.323
-0.018,0.345,-0.420,-10.071,30.334,83.618
-0.516,0.295,-0.379,-10.071,26.794,72.571
-0.096,0.498,-0.263,-1.648,27.954,53.650
0.350,0.721,0.043,-5.859,21.667,41.138
0.226,0.904,-0.030,10.986,27.344,18.127
0.039,0.196,-0.116,17.517,35.706,-2.075
-0.090,0.157,-0.105,7.690,35.278,-8.789
0.238,0.494,0.094,18.738,37.415,-20.874
0.397,0.369,0.093,30.029,38.757,-36.316
0.427,0.295,0.003,36.377,34.302,-53.589
0.377,0.322,-0.041,43.457,28.076,-70.007
0.361,0.310,-0.078,47.668,23.071,-87.830
0.325,0.339,-0.075,49.072,16.052,-102.783
0.258,0.400,-0.108,50.720,9.277,-116.516
0.171,0.452,-0.108,52.917,2.441,-130.310
0.115,0.498,-0.112,55.786,-3.174,-142.883
0.079,0.532,-0.084,58.899,-8.179,-156.555
0.077,0.554,-0.077,60.608,-13.367,-169.006
0.117,0.587,-0.084,61.279,-19.958,-181.580
0.165,0.645,-0.093,62.744,-25.818,-195.862
0.199,0.689,-0.124,63.965,-30.212,-210.327
0.215,0.740,-0.158,64.270,-33.020,-222.656
0.195,0.818,-0.154,63.660,-30.518,-232.666
0.170,0.886,-0.151,62.805,-22.827,-240.417
0.120,0.992,-0.130,61.340,-15.381,-245.728
0.099,1.078,-0.095,60.364,-8.911,-249.573
0.199,1.131,-0.184,56.824,-7.080,-254.944
0.096,1.262,-0.233,54.504,-3.296,-260.437
-0.077,1.392,-0.299,54.749,7.141,-264.099
-0.066,1.468,-0.382,54.138,17.029,-267.883
-0.045,1.520,-0.429,48.828,20.874,-274.902
0.050,1.624,-0.407,44.006,22.522,-281.128
0.093,1.748,-0.366,40.100,22.705,-286.194
0.155,1.911,-0.366,35.339,17.090,-290.955
0.107,1.990,-0.404,30.640,12.573,-293.396
-0.124,2.062,-0.357,23.315,10.803,-291.626
-0.466,2.106,-0.276,19.287,15.442,-286.194
-0.712,1.975,-0.264,16.296,21.057,-277.405
-0.765,1.891,-0.241,10.071,22.888,-268.127
-0.721,1.841,-0.254,3.052,24.109,-257.019
-0.656,2.002,-0.268,1.282,19.043,-242.737
-0.655,2.036,-0.320,6.592,13.916,-222.595
-0.822,1.860,-0.322,12.146,10.681,-198.975
-0.898,1.534,-0.352,9.155,3.296,-176.086
-1.048,1.350,-0.396,2.014,1.099,-151.245
-1.268,1.329,-0.418,-3.723,5.859,-121.582
-1.479,1.264,-0.374,-7.996,11.902,-84.229
-1.568,1.183,-0.245,-11.536,13.733,-42.236
-1.359,1.111,-0.187,-14.771,6.409,-2.380
-1.028,1.105,-0.204,-18.311,-9.583,29.175
-0.823,1.148,-0.210,-21.790,-29.663,53.772
-0.872,1.178,-0.162,-24.963,-47.729,75.073
-0.851,1.204,-0.135,-29.236,-62.927,90.942
-0.538,1.204,-0.124,-32.349,-76.782,99.121
-0.157,1.223,0.226,-22.827,-79.895,95.642
1.517,1.089,0.188,-29.846,-87.463,72.876
1.942,1.062,0.462,-27.954,-65.735,66.467
1.093,0.927,0.421,-17.456,-48.157,74.646
0.181,0.779,0.341,-20.203,-67.627,83.130
-0.682,1.124,-0.097,-30.884,-76.233,97.473
-0.503,1.347,-0.198,-35.950,-58.044,107.910
-0.183,1.468,0.150,-45.471,-40.344,114.685
0.018,1.444,0.194,-49.744,-29.236,108.765
0.178,1.241,0.041,-52.063,-32.410,98.206
0.054,1.199,-0.036,-46.814,-21.118,94.727
0.034,1.221,-0.081,-37.964,-21.362,95.520
0.149,1.129,-0.136,-32.349,-29.175,95.825
0.361,1.012,-0.380,-35.461,-43.884,86.243
0.451,0.961,-0.252,-33.936,-60.913,76.538
-0.089,1.079,-0.448,-26.428,-70.129,69.763
-0.087,1.011,-0.053,-19.775,-59.814,63.721
-0.185,1.031,-0.051,-2.197,-41.016,53.162
-0.311,0.946,-0.260,-35.278,-17.029,57.983
-0.111,1.391,0.098,-18.677,3.845,58.838
0.068,1.091,0.006,-19.714,20.752,58.777
-0.043,1.102,0.001,-18.921,33.325,58.105
0.494,1.048,0.184,-15.015,34.851,52.124
0.021,0.885,-0.050,-24.719,29.175,49.622
0.281,1.091,-0.012,-22.156,23.621,43.945
0.509,0.842,-0.041,-23.987,14.893,34.912
-0.158,1.058,-0.248,-28.259,8.606,36.194
0.031,1.171,-0.177,-19.348,8.911,34.424
0.814,0.904,0.094,-12.817,11.292,26.001
-0.354,0.888,-0.402,-21.545,7.324,30.823
-0.175,1.264,-0.060,-8.484,16.907,30.945
0.952,0.694,-0.052,-7.629,15.686,20.752
-0.723,1.058,-0.328,-18.982,14.465,28.320
0.561,1.040,0.013,-8.362,22.095,18.921
0.161,0.820,-0.129,-16.418,14.465,18.616
0.136,1.034,0.064,-15.198,14.709,19.714
0.082,0.937,-0.175,-15.808,10.559,16.296
0.287,0.939,-0.103,-13.550,8.545,15.381
0.203,0.972,-0.089,-13.977,6.470,14.465
-0.035,1.010,-0.120,-13.184,7.263,15.747
0.251,0.947,-0.084,-10.986,9.583,12.878
-0.107,0.934,-0.280,-14.648,6.165,14.709
0.298,1.034,0.079,-9.216,15.747,11.414

0.138,1.005,-0.125,-9.094,20.264,26.001
0.283,0.892,-0.116,-9.094,19.958,24.597
0.024,1.050,-0.067,-7.935,19.043,22.949
0.625,0.785,-0.170,-8.240,16.113,16.479
-0.155,1.029,-0.107,-15.564,10.864,21.118
0.169,0.972,-0.047,-12.634,9.033,17.883
0.184,0.854,-0.120,-15.503,5.371,17.029
0.105,0.997,-0.066,-15.015,5.310,16.968
0.020,0.938,-0.219,-15.503,3.723,18.066
0.186,1.029,-0.020,-13.245,6.714,17.273
0.127,0.934,-0.191,-15.320,7.263,17.944
-0.029,0.988,-0.146,-15.564,8.850,18.982
0.359,0.972,0.001,-12.085,14.038,15.686
0.086,0.940,-0.240,-15.503,12.146,19.348
-0.053,1.060,-0.038,-12.817,17.517,20.996
0.454,0.938,-0.044,-12.451,18.860,18.616
-0.007,0.964,-0.216,-15.076,13.733,23.865
-0.221,1.035,-0.195,-14.771,12.268,25.757
0.484,0.942,0.010,-10.864,14.343,20.996
0.406,0.902,-0.289,-14.954,7.690,21.667
-0.759,1.114,-0.278,-15.869,4.883,28.259
0.620,0.925,0.292,-10.376,13.794,19.043
-0.108,0.933,-0.714,-16.235,3.357,27.039
-0.190,1.125,0.147,-11.292,11.963,24.841
0.549,0.890,-0.259,-15.198,10.010,22.766
-0.187,1.117,-0.124,-10.620,13.184,28.076
0.073,0.912,-0.353,-14.526,13.367,29.114
0.237,0.985,-0.060,-12.451,15.076,31.433
0.245,0.983,-0.156,-14.038,16.907,33.447
-0.039,0.997,-0.186,-15.564,14.282,39.185
0.138,0.995,-0.087,-16.052,14.587,42.236
0.193,0.982,-0.265,-16.785,12.085,47.852
-0.008,1.092,0.031,-15.930,14.709,52.673
0.389,0.955,-0.338,-16.541,10.620,54.260
-0.288,1.147,-0.295,-16.235,8.667,64.758
0.234,1.040,0.074,-14.465,10.803,67.993
-0.038,1.088,-0.371,-11.108,4.822,73.364
0.094,1.011,-0.058,-13.306,2.869,75.989
-0.123,1.114,-0.244,-13.367,-2.014,80.322
0.173,1.107,-0.045,-11.353,-1.099,81.116
-0.101,1.140,-0.283,-12.634,-3.052,85.510
-0.067,1.158,-0.075,-12.756,1.282,86.060
0.247,1.232,-0.125,-12.207,1.404,84.167
-0.332,1.242,-0.272,-16.235,3.601,87.830
0.143,1.244,0.050,-15.747,8.972,89.111
-0.010,1.190,-0.261,-15.808,7.019,91.187
-0.439,1.231,-0.228,-19.958,8.667,96.313
0.197,1.305,0.075,-16.418,11.780,96.252
0.338,1.249,-0.234,-16.296,9.399,96.069
-0.622,1.349,-0.679,-25.024,8.179,104.370
0.168,1.451,0.243,-20.142,22.766,107.727
0.114,1.304,-0.460,-22.339,25.391,111.938
-0.324,1.545,-0.052,-24.536,34.485,126.038
0.429,1.404,-0.000,-23.437,45.349,128.967
0.090,1.528,-0.201,-27.100,46.570,140.686
0.350,1.619,-0.017,-31.555,45.227,149.170
0.352,1.753,-0.049,-34.180,40.039,156.433
0.473,1.816,-0.056,-37.415,39.490,163.025
0.493,1.778,-0.222,-43.091,40.161,172.485
0.338,1.756,-0.090,-48.645,43.823,175.964
0.194,1.703,-0.021,-51.941,48.828,175.293
-0.014,1.706,-0.005,-49.683,54.077,179.138
0.139,1.529,-0.074,-47.607,56.519,177.246
-0.141,1.482,-0.255,-49.133,51.453,172.424
-0.032,1.688,-0.259,-38.269,41.626,164.795
0.382,1.442,-0.223,-28.137,35.034,151.306
0.405,1.197,-0.071,-24.536,38.513,134.277
0.485,1.027,-0.036,-15.381,43.823,118.225
0.615,0.795,-0.115,-4.944,44.067,101.074
0.384,0.495,-0.131,-4.944,43.213,87.097
-0.547,0.244,-0.502,-10.925,34.851,82.642
-0.506,0.381,-0.222,-6.775,24.536,72.815
0.222,0.745,0.021,-13.062,15.198,58.777
0.253,0.999,-0.113,5.188,10.925,33.813
0.072,0.242,-0.086,15.015,5.859,4.272
-0.229,0.016,-0.262,2.930,-1.282,-4.395
0.050,0.511,0.089,8.179,-2.075,-15.808
0.352,0.441,0.082,24.414,-0.488,-32.349
0.419,0.268,0.059,32.166,-0.916,-51.514
0.367,0.270,-0.005,38.208,-3.723,-69.031
0.327,0.297,-0.016,44.067,-6.958,-85.144
0.312,0.325,-0.022,48.523,-10.010,-98.999
0.283,0.348,-0.066,51.880,-15.503,-113.403
0.177,0.386,-0.090,55.054,-19.165,-126.587
0.125,0.422,-0.113,57.007,-21.362,-138.794
0.106,0.455,-0.116,59.509,-24.353,-151.917
0.066,0.470,-0.113,61.646,-25.696,-164.795
0.050,0.498,-0.111,63.599,-24.902,-177.368
0.043,0.526,-0.118,64.758,-23.926,-190.186
0.083,0.580,-0.114,65.491,-23.682,-203.430
0.124,0.643,-0.123,66.406,-23.865,-216.125
0.124,0.731,-0.136,67.078,-23.132,-227.722
0.147,0.781,-0.156,65.918,-20.874,-238.525
0.183,0.851,-0.168,62.866,-17.029,-247.559
0.194,0.955,-0.141,60.303,-12.878,-255.371
0.160,1.060,-0.106,58.167,-6.958,-261.047
0.162,1.177,-0.095,56.335,-0.366,-263.184
0.188,1.286,-0.115,55.420,3.906,-268.005
0.010,1.413,-0.102,54.626,13.245,-272.827
-0.067,1.526,-0.218,53.162,21.729,-275.391
0.010,1.608,-0.269,50.903,30.701,-278.320
0.045,1.684,-0.321,44.250,34.668,-284.241
0.197,1.887,-0.339,39.185,32.288,-289.368
0.198,2.034,-0.403,35.645,23.743,-295.410
0.117,2.137,-0.377,28.381,14.404,-296.814
-0.129,2.295,-0.313,25.818,17.578,-290.344
-0.567,2.194,-0.202,21.790,28.259,-282.410
-0.743,2.130,-0.289,18.555,39.673,-270.203
-0.806,2.007,-0.292,13.062,41.016,-256.226
-0.763,1.974,-0.321,6.042,38.696,-243.347
-0.786,1.893,-0.336,3.418,30.396,-229.492
-0.904,1.777,-0.351,2.808,24.658,-211.914
-0.961,1.626,-0.374,3.479,23.193,-187.012
-1.006,1.531,-0.416,6.165,20.752,-156.494
-1.184,1.355,-0.449,6.897,19.897,-125.977
-1.465,1.198,-0.379,3.052,21.362,-91.614
-1.546,1.094,-0.321,-1.221,23.193,-51.636
-1.363,1.029,-0.240,-8.423,17.761,-10.864
-1.033,1.116,-0.201,-12.085,1.465,25.024
-0.883,1.121,-0.130,-13.733,-16.907,52.246
-0.890,1.129,-0.161,-18.188,-32.288,72.327
-0.814,1.226,-0.144,-22.583,-44.434,87.952
-0.806,1.238,-0.116,-26.062,-62.500,104.431
-0.510,1.209,-0.142,-29.053,-82.397,109.375
0.525,1.352,0.282,-17.578,-76.782,85.327
1.930,0.875,0.181,-9.766,-70.862,61.401
2.218,0.578,0.059,-27.283,-56.091,54.749
1.166,1.004,0.397,-13.672,-37.720,66.528
0.092,0.830,0.362,-14.648,-39.612,82.092
-0.486,1.167,0.217,-26.917,-48.096,98.450
-0.320,1.322,0.029,-34.302,-57.861,101.074
0.015,1.174,0.103,-51.147,-57.007,93.689
0.229,1.295,0.141,-57.190,-55.969,91.492
-0.034,1.353,0.133,-53.467,-56.091,94.360
-0.604,1.439,-0.119,-46.631,-47.668,98.389
0.090,1.468,0.026,-32.898,-28.137,94.360
0.315,1.110,0.079,-31.738,-28.137,91.309
-0.200,1.078,-0.386,-34.790,-41.138,94.543
0.655,0.953,-0.071,-32.532,-45.410,82.642
-0.099,0.956,-0.630,-33.569,-56.763,79.407
0.207,1.081,-0.287,-21.729,-50.842,70.740
-0.052,1.006,-0.104,-5.432,-33.569,61.096
-0.191,0.606,-0.330,-15.442,-14.709,59.082
0.068,1.301,-0.047,-24.353,-1.343,60.547
0.148,1.214,0.139,-19.958,14.465,57.312
-0.041,1.137,0.027,-22.156,25.757,60.059
0.172,1.092,0.027,-20.081,29.053,56.824
0.096,0.930,-0.041,-23.926,25.024,52.002
0.338,1.100,0.075,-19.653,23.682,44.556
0.279,0.810,-0.125,-24.597,16.113,37.903
-0.207,1.126,-0.198,-24.902,13.062,38.635
0.353,1.008,-0.041,-19.592,10.559,31.860
0.037,1.003,-0.236,-21.667,11.963,31.067
0.191,0.975,-0.156,-17.090,14.282,27.954
-0.025,1.006,-0.222,-15.381,17.883,26.001
0.262,0.941,-0.078,-10.193,22.827,24.048
0.058,0.928,-0.143,-14.954,21.790,22.278
0.187,1.021,-0.030,-11.902,24.231,18.433
0.462,0.853,-0.132,-15.991,21.912,14.526
-0.095,1.042,-0.057,-19.409,18.250,17.395
0.385,0.987,-0.054,-14.893,17.517,11.353
0.177,0.870,-0.168,-17.029,13.672,12.878
-0.240,1.025,-0.211,-16.418,12.390,16.785
0.179,1.019,-0.023,-10.925,16.052,12.817
0.697,0.848,-0.116,-10.742,16.052,9.216
-0.443,1.004,-0.410,-16.418,11.047,18.555
-0.033,1.156,0.104,-5.859,19.531,16.052
0.802,0.716,-0.293,-11.169,14.221,13.611
-0.646,1.218,-0.196,-10.437,14.832,24.292
0.433,0.896,-0.059,-7.935,20.264,16.785
0.138,0.961,-0.250,-9.399,15.991,22.888
0.081,0.966,-0.019,-8.606,20.142,21.667
0.055,1.019,-0.159,-10.132,17.273,22.766
0.193,0.910,-0.141,-9.155,17.944,21.240
0.196,0.963,-0.203,-11.292,15.625,21.118
-0.002,1.014,-0.095,-11.414,14.954,22.034
0.197,1.010,-0.037,-10.864,16.235,21.057
-0.157,0.996,-0.410,-12.329,13.367,24.231
0.372,1.014,0.155,-7.751,17.822,19.958
0.049,0.978,-0.483,-12.695,12.207,21.851
-0.288,1.091,-0.166,-10.376,15.015,24.597
0.250,0.997,-0.083,-8.850,18.005,24.963
-0.034,1.032,-0.267,-8.545,18.677,28.381
0.092,0.915,-0.256,-11.414,19.592,31.006
0.001,1.013,-0.086,-11.658,20.020,36.987
0.232,0.909,-0.167,-11.597,19.287,41.626
0.133,0.954,-0.167,-13.855,14.832,49.316
0.182,0.999,-0.083,-14.893,13.977,53.284
0.373,1.010,-0.239,-14.587,9.094,57.190
-0.194,1.150,-0.238,-16.174,7.324,64.880
0.295,1.087,0.079,-13.428,9.521,65.918
0.002,1.082,-0.353,-12.695,3.479,70.190
-0.346,1.090,-0.156,-15.991,0.854,76.416
0.250,1.140,0.151,-12.451,2.014,76.660
0.458,1.074,-0.207,-10.010,-2.197,75.500
-0.780,1.145,-0.601,-19.287,-7.385,83.801
0.318,1.230,0.524,-13.062,1.221,85.205
0.118,1.242,-0.694,-10.742,-7.568,87.646
-0.650,1.276,0.036,-17.334,-0.305,97.412
0.521,1.207,-0.042,-17.151,-0.977,96.619
-0.275,1.305,-0.364,-13.855,5.188,103.149
-0.114,1.193,-0.144,-19.897,9.277,106.567
0.147,1.292,-0.171,-16.052,11.230,110.474
0.109,1.292,-0.129,-18.311,13.672,114.075
-0.042,1.338,-0.258,-22.034,12.878,117.859
0.109,1.409,-0.120,-22.339,19.775,120.972
0.088,1.406,-0.220,-25.024,21.973,125.061
-0.020,1.590,-0.044,-25.635,30.212,132.629
0.270,1.571,-0.165,-26.794,35.339,138.245
0.071,1.713,-0.230,-30.579,37.659,148.560
0.371,1.828,0.058,-29.785,39.795,155.457
0.323,1.832,-0.083,-30.090,42.175,161.804
0.464,1.666,-0.112,-33.386,45.959,169.800
0.306,1.524,-0.182,-43.518,44.250,174.255
0.157,1.569,0.006,-45.288,42.480,171.082
-0.071,1.483,-0.072,-47.729,39.917,170.044
-0.179,1.500,-0.184,-47.302,36.377,168.030
-0.112,1.465,-0.268,-42.786,34.790,161.804
0.157,1.444,-0.301,-36.743,32.715,152.771
0.368,1.366,-0.179,-25.208,34.058,140.381
0.491,1.043,-0.123,-20.874,37.170,123.840
0.529,0.888,-0.098,-15.625,41.504,107.056
0.492,0.734,-0.125,-5.554,44.800,91.248
0.336,0.473,-0.135,-5.737,39.185,79.712
-0.397,0.232,-0.426,-10.803,28.625,71.350
-0.551,0.298,-0.275,-8.911,22.278,61.462
0.159,0.743,0.055,-11.902,17.029,51.208
0.224,1.047,-0.104,4.822,19.165,29.785
-0.060,0.330,-0.114,13.672,20.813,5.554
-0.367,0.065,-0.202,4.456,18.677,-0.122
0.033,0.527,0.086,7.690,18.555,-8.972
0.371,0.500,0.112,21.118,20.386,-25.513
0.415,0.354,0.038,27.832,18.799,-42.480
0.410,0.353,-0.015,33.325,15.320,-58.838
0.403,0.377,-0.034,38.330,8.484,-74.768
0.378,0.413,-0.040,42.053,2.075,-89.783
0.329,0.461,-0.040,45.593,-4.822,-104.492
0.297,0.500,-0.100,48.584,-12.146,-118.286

0.018,0.539,-0.072,60.242,-8.789,-179.077
0.015,0.534,-0.079,61.279,-8.362,-191.406
0.062,0.558,-0.064,61.584,-8.179,-204.163
0.108,0.631,-0.063,61.890,-8.972,-217.102
0.136,0.673,-0.096,61.890,-9.460,-229.858
0.184,0.723,-0.113,59.143,-7.812,-241.455
0.209,0.807,-0.114,54.993,-5.005,-251.343
0.196,0.929,-0.104,50.659,-1.465,-258.850
0.148,1.046,-0.042,47.607,2.869,-263.672
0.198,1.122,-0.058,43.945,4.700,-268.860
0.124,1.217,-0.095,39.429,10.620,-275.696
-0.081,1.372,-0.123,35.889,25.635,-279.724
-0.078,1.507,-0.196,34.729,40.955,-282.959
-0.035,1.608,-0.237,32.349,52.063,-287.842
0.093,1.781,-0.257,28.076,55.603,-292.664
0.105,2.012,-0.270,23.987,49.133,-299.988
0.107,2.165,-0.227,24.658,44.861,-302.124
-0.163,2.152,-0.181,23.193,43.396,-299.561
-0.361,2.109,-0.163,21.423,46.509,-295.654
-0.376,2.058,-0.241,20.996,46.143,-288.757
-0.443,2.019,-0.347,15.869,44.678,-277.405
-0.673,2.063,-0.468,5.005,38.330,-259.399
-0.864,2.129,-0.454,0.854,30.273,-242.554
-1.015,2.016,-0.341,-0.793,25.940,-225.220
-1.038,1.810,-0.235,-1.892,14.343,-202.087
-1.033,1.554,-0.123,-2.441,0.916,-174.133
-1.039,1.391,-0.146,-4.700,-12.695,-144.592
-1.228,1.307,-0.126,-6.897,-20.325,-112.915
-1.536,1.199,-0.091,-11.169,-20.325,-74.707
-1.472,1.110,-0.130,-14.954,-24.780,-32.532
-1.131,1.096,-0.068,-18.066,-37.781,7.080
-0.812,1.111,-0.031,-19.592,-53.223,38.086
-0.661,1.092,-0.158,-23.437,-74.036,59.021
-0.628,1.179,-0.223,-26.611,-90.454,74.768
-0.894,1.184,-0.100,-26.001,-93.994,92.224
-0.961,1.157,-0.158,-26.062,-89.600,102.661
-0.185,1.211,-0.279,-21.790,-79.407,91.431
1.135,1.149,-0.157,-10.803,-76.782,67.261
1.940,0.929,-0.343,-24.475,-48.035,56.824
1.724,1.040,0.097,-12.146,-11.841,63.171
0.606,0.828,0.347,-10.010,-16.052,78.308
-0.124,1.109,0.158,-13.000,-37.415,91.370
-0.473,1.271,0.117,-23.560,-46.143,101.440
-0.240,1.468,0.140,-26.733,-41.077,108.826
0.011,1.346,0.129,-36.560,-39.429,107.849
-0.073,1.245,-0.100,-52.734,-50.781,95.947
0.214,1.320,0.086,-51.147,-41.138,82.031
-0.117,1.278,0.334,-40.955,-25.208,78.674
-0.793,1.332,-0.002,-29.480,-14.221,87.158
0.490,1.036,0.272,-27.039,-5.615,77.454
-0.002,0.858,-0.316,-41.321,-20.142,74.829
0.454,0.999,-0.171,-35.034,-28.687,67.688
0.405,0.799,-0.391,-34.668,-37.170,60.669
0.220,1.019,-0.429,-30.334,-39.612,55.481
0.132,1.020,-0.323,-23.376,-38.818,47.852
0.129,1.118,0.019,-7.996,-26.062,42.542
0.061,0.744,-0.295,-15.564,-10.437,42.969
0.044,1.297,-0.092,-19.653,1.038,46.936
0.118,1.105,0.023,-13.123,10.864,49.255
0.127,1.090,-0.011,-12.451,20.081,45.593
0.411,0.868,-0.050,-15.015,24.719,39.795
-0.218,1.042,-0.212,-21.057,25.635,41.382
0.316,1.168,0.035,-13.428,23.315,37.903
0.156,0.927,-0.061,-17.273,19.287,33.813
0.215,1.004,-0.070,-14.404,18.799,30.945
0.037,0.971,-0.212,-14.526,16.846,28.809
0.322,0.986,-0.025,-9.949,18.188,24.841
0.068,0.908,-0.182,-12.085,21.484,23.437
0.074,1.041,-0.137,-9.644,23.560,20.569
0.483,0.966,-0.046,-6.653,27.466,16.357
-0.061,0.889,-0.168,-12.756,27.039,17.822
0.213,1.026,-0.080,-8.972,26.184,15.564
0.519,0.812,-0.055,-12.390,22.583,10.559
-0.066,0.960,-0.179,-16.541,14.954,13.550
-0.091,1.036,-0.127,-13.367,14.404,13.550
0.644,0.959,-0.023,-9.460,16.907,7.324
0.152,0.869,-0.201,-16.174,12.512,12.085
-0.606,1.174,-0.189,-12.695,14.282,18.982
0.834,0.947,0.065,-5.920,18.799,11.353
-0.199,0.913,-0.297,-16.296,12.207,21.790
0.011,1.115,-0.053,-8.911,16.418,20.447
0.593,0.832,-0.088,-11.475,12.146,17.944
-0.118,1.036,-0.072,-10.620,12.878,22.217
0.139,0.907,-0.341,-11.536,10.437,20.386
0.271,0.999,-0.013,-10.681,10.681,20.569
0.214,0.988,-0.094,-11.658,10.132,19.653
0.005,0.970,-0.196,-12.207,7.690,22.095
0.156,0.972,-0.158,-11.475,8.545,21.301
0.236,0.959,-0.149,-11.841,6.958,24.231
-0.129,1.063,-0.117,-10.559,8.118,27.283
0.620,0.848,-0.257,-10.864,8.118,24.963
-0.144,1.069,-0.181,-13.733,7.019,33.875
-0.007,0.979,-0.084,-12.390,8.667,35.034
0.259,0.944,-0.245,-13.367,6.775,37.964
0.047,1.017,-0.103,-13.245,9.094,40.649
-0.020,0.997,-0.277,-15.381,6.226,43.823
0.143,1.017,-0.033,-13.062,9.827,45.227
0.111,0.981,-0.283,-13.672,8.911,49.255
-0.034,1.004,-0.184,-13.428,10.010,52.979
0.377,0.992,-0.054,-13.000,10.559,52.612
0.086,1.019,-0.421,-14.709,6.897,56.824
-0.052,1.137,-0.030,-13.916,10.864,60.669
0.433,1.065,-0.117,-12.207,9.644,61.829
-0.254,1.059,-0.278,-11.841,7.202,70.557
-0.207,1.025,-0.015,-13.794,7.446,74.829
0.562,1.038,0.012,-8.972,7.202,71.838
-0.099,1.018,-0.570,-13.123,0.854,75.623
-0.697,1.188,0.110,-15.320,2.991,85.327
0.958,1.046,0.079,-9.033,2.197,78.918
-0.997,1.181,-0.825,-12.817,-0.366,89.783
0.382,1.141,0.319,-17.151,6.714,91.125
0.063,1.337,-0.585,-13.367,3.784,94.116
-0.105,1.222,0.137,-16.785,15.198,100.403
0.090,1.362,-0.127,-16.479,13.672,104.187
-0.011,1.315,-0.155,-15.869,14.404,107.666
0.029,1.359,-0.299,-20.813,12.451,111.145
-0.002,1.421,-0.226,-21.301,15.503,117.859
0.235,1.383,-0.080,-22.827,21.118,122.131
-0.204,1.424,-0.191,-26.184,25.635,131.287
0.325,1.437,0.088,-27.222,30.457,133.972
0.015,1.537,-0.206,-32.593,28.992,140.503
0.129,1.686,0.016,-38.269,31.006,148.682
0.397,1.802,-0.036,-40.405,31.128,155.701
0.510,1.919,0.061,-40.161,27.039,164.429
0.361,1.800,-0.223,-44.922,26.794,172.058
0.355,1.755,-0.127,-47.058,30.701,178.894
0.217,1.661,-0.162,-51.392,34.485,178.528
0.044,1.657,-0.083,-52.368,38.208,176.575
0.074,1.607,-0.059,-50.537,42.419,173.157
-0.005,1.450,-0.287,-50.598,37.720,170.471
-0.173,1.438,-0.327,-48.767,37.476,162.537
0.266,1.525,-0.195,-40.100,39.429,146.912
0.492,1.291,-0.095,-30.579,43.945,134.460
0.324,1.009,-0.070,-26.367,53.833,119.995
0.315,0.799,-0.049,-18.921,63.660,104.675
0.416,0.503,-0.144,-11.047,61.157,89.722
-0.121,0.100,-0.477,-13.062,54.016,76.599
-0.149,0.316,-0.243,-12.024,46.997,61.340
0.324,0.882,-0.034,-5.493,38.574,50.232
0.187,0.531,-0.204,12.939,39.978,20.386
-0.320,0.157,-0.222,10.620,28.748,7.202
0.124,0.364,-0.015,3.906,25.269,-2.502
0.372,0.517,0.213,20.813,33.569,-19.897
0.389,0.329,0.150,32.043,32.959,-37.231
0.436,0.328,0.054,37.659,27.466,-55.542
0.526,0.337,-0.009,42.908,18.250,-73.608
0.482,0.361,-0.033,45.532,8.240,-87.280
0.365,0.358,-0.069,48.096,-1.404,-101.135
0.301,0.366,-0.109,49.438,-11.841,-114.563
0.251,0.425,-0.112,51.086,-24.536,-128.357
0.195,0.494,-0.099,52.673,-36.560,-140.869
0.169,0.532,-0.100,53.223,-48.279,-153.137
0.189,0.586,-0.108,53.284,-59.021,-166.504
0.143,0.640,-0.081,53.650,-66.956,-179.016
0.123,0.704,-0.093,54.871,-73.303,-189.758
0.101,0.750,-0.111,57.434,-75.928,-199.463
0.100,0.784,-0.139,59.387,-76.660,-208.130
0.093,0.818,-0.173,60.242,-77.637,-216.675
0.100,0.877,-0.202,60.303,-77.637,-225.098
0.096,0.946,-0.250,60.547,-74.951,-232.361
0.089,1.030,-0.295,61.340,-70.557,-239.319
0.046,1.129,-0.337,63.049,-63.171,-245.911
0.005,1.254,-0.349,65.796,-54.565,-250.854
-0.068,1.358,-0.342,68.359,-43.152,-254.517
-0.087,1.432,-0.364,69.214,-28.625,-258.240
-0.055,1.507,-0.390,69.153,-11.658,-261.292
-0.054,1.565,-0.417,66.833,3.418,-265.198
0.008,1.668,-0.434,64.392,19.409,-267.761
0.029,1.766,-0.436,60.608,32.410,-269.653
-0.022,1.891,-0.425,57.617,44.250,-270.935
-0.075,1.885,-0.434,53.894,49.988,-272.095
-0.225,1.932,-0.428,48.950,61.768,-269.958
-0.388,1.964,-0.352,44.189,72.083,-266.235
-0.460,1.988,-0.370,37.781,76.782,-257.629
-0.616,1.910,-0.373,27.527,82.397,-248.657
-0.683,1.923,-0.431,18.188,93.445,-237.183
-0.718,1.932,-0.445,15.015,96.802,-220.764
-0.874,1.739,-0.305,10.864,94.604,-204.773
-0.989,1.588,-0.248,7.751,85.754,-185.303
-0.986,1.461,-0.186,6.409,73.486,-160.828
-1.044,1.327,-0.205,1.892,58.167,-133.545
-1.251,1.278,-0.237,0.061,44.495,-99.487
-1.387,1.161,-0.219,-1.770,27.466,-59.570
-1.169,1.015,-0.234,-6.958,4.578,-18.311
-0.772,0.994,-0.170,-14.587,-20.569,17.151
-0.510,1.051,-0.161,-20.203,-51.086,41.992
-0.513,1.114,-0.106,-24.536,-76.599,57.739
-0.712,1.125,0.011,-28.076,-89.783,75.806
-0.801,1.091,-0.001,-31.250,-101.074,90.088
-0.587,1.119,-0.100,-31.677,-110.107,93.384
0.081,1.189,0.210,-21.606,-113.342,80.200
1.350,0.985,0.168,-17.029,-105.469,62.134
1.698,0.966,0.102,-30.029,-63.171,59.021
1.000,1.179,0.577,-9.460,-14.282,72.144
0.161,0.837,0.608,-10.864,-2.014,88.745
-0.725,1.151,0.124,-25.391,-13.550,104.797
-0.239,1.346,0.347,-27.954,-13.062,106.750
-0.407,1.229,0.092,-40.405,-9.705,105.103
0.105,1.422,0.081,-39.307,-14.282,101.624
0.099,1.285,-0.142,-47.913,-27.344,93.018
0.030,1.494,-0.099,-41.504,-24.414,88.379
0.124,1.370,-0.035,-30.396,-20.264,87.646
0.377,1.194,-0.052,-25.391,-24.963,85.754
