aX,aY,aZ,gX,gY,gZ
-0.143,1.084,-0.217,-3.479,5.310,5.920
-0.341,0.947,-0.209,1.221,5.798,5.798
0.106,0.959,-0.277,-6.409,2.258,2.014
-0.121,0.938,-0.178,-1.343,4.761,5.249
0.082,0.974,-0.242,0.122,5.615,4.211
-0.026,1.019,-0.232,1.953,4.395,4.517
-0.127,0.988,-0.242,1.526,3.967,4.517
0.037,0.889,-0.245,-2.075,4.150,3.296
-0.096,1.000,-0.223,6.287,7.263,5.432
-0.035,0.991,-0.243,4.089,7.629,4.395
-0.030,0.978,-0.211,7.263,8.301,6.348
0.010,0.850,-0.215,7.507,8.362,5.371
0.028,1.143,-0.307,9.949,8.301,6.287
-0.206,0.906,-0.206,16.296,8.057,8.728
-0.100,0.955,-0.239,13.794,6.958,7.690
-0.058,1.030,-0.214,14.160,11.597,9.766
-0.054,0.948,-0.211,16.968,14.343,11.719
-0.141,1.023,-0.215,22.888,11.353,15.869
-0.022,0.899,-0.211,18.616,11.841,19.653
-0.049,0.928,-0.191,7.935,11.780,21.912
-0.115,1.032,-0.198,10.498,13.550,26.672
0.040,0.913,-0.186,10.498,10.376,33.142
0.078,1.090,-0.241,9.949,10.071,40.222
-0.306,0.975,-0.184,13.062,12.634,48.462
0.161,1.001,-0.294,7.324,12.146,54.932
-0.128,0.977,-0.155,9.399,15.198,62.439
-0.301,1.118,-0.186,8.545,11.169,67.139
-0.137,1.071,-0.256,7.324,8.362,68.970
0.303,1.158,-0.305,3.906,11.658,74.158
-0.485,1.073,-0.232,11.475,15.137,88.867
-0.381,1.167,-0.286,15.686,17.212,107.483
0.251,1.208,-0.250,9.094,25.513,123.840
-0.604,1.272,-0.189,14.832,33.997,145.081
-0.145,1.408,-0.307,8.789,39.734,166.687
-0.286,1.225,-0.181,-1.953,49.072,188.843
0.087,1.325,-0.287,-5.859,55.176,209.534
-0.434,1.479,-0.309,-6.592,62.134,227.295
-0.464,1.784,-0.402,-7.446,67.078,243.713
-0.262,1.843,-0.511,0.916,70.251,258.179
-0.491,1.864,-0.490,18.127,74.646,267.578
-0.519,1.957,-0.531,27.222,72.083,271.118
-0.338,2.011,-0.618,28.076,68.665,266.174
-0.453,1.943,-0.527,26.184,65.796,260.315
-0.202,2.018,-0.550,15.625,56.458,250.732
-0.124,1.767,-0.423,20.874,52.734,250.793
-0.046,1.506,-0.349,23.987,53.711,261.841
0.277,1.347,-0.321,25.696,59.143,274.902
0.195,1.097,-0.190,28.809,76.599,288.330
-0.057,1.124,-0.096,6.592,110.474,262.268
0.544,2.161,-0.256,-9.216,124.329,204.590
0.763,2.231,-0.259,-26.184,125.671,143.860
0.745,2.151,-0.271,-12.756,122.986,78.613
0.889,1.658,-0.235,17.639,117.065,16.968
0.873,1.148,-0.272,59.692,108.643,-40.405
0.739,0.537,-0.267,80.811,100.281,-91.125
0.649,0.275,-0.272,73.975,90.027,-120.300
0.592,0.187,-0.283,56.396,79.224,-127.136
0.536,0.130,-0.325,30.457,70.496,-120.911
0.459,0.194,-0.366,10.315,63.232,-111.084
0.463,0.287,-0.373,-3.967,55.542,-104.309
0.536,0.413,-0.364,-14.954,44.739,-103.210
0.609,0.536,-0.355,-22.278,29.724,-108.826
0.666,0.671,-0.343,-23.499,11.536,-121.338
0.690,0.780,-0.348,-20.752,-10.010,-138.916
0.634,0.884,-0.381,-15.320,-32.959,-157.837
0.531,0.905,-0.386,-10.498,-53.162,-173.828
0.425,0.872,-0.372,-9.460,-68.787,-185.547
0.315,0.767,-0.344,-16.052,-80.811,-193.604
0.200,0.670,-0.328,-31.128,-88.074,-198.914
0.084,0.606,-0.306,-51.270,-91.309,-202.271
0.094,0.566,-0.197,-77.515,-94.116,-202.271
-0.343,0.687,-0.336,-93.811,-73.303,-201.050
-0.116,1.031,-0.060,-107.727,-92.041,-195.190
-0.201,1.472,-0.069,-99.976,-99.854,-176.819
-0.481,1.148,-0.004,-71.899,-74.097,-165.771
-0.403,1.684,0.051,-47.241,-44.922,-163.574
-0.340,1.782,0.042,-13.062,-22.705,-166.687
-0.365,1.887,-0.062,21.423,-1.587,-173.035
-0.385,1.790,-0.149,40.649,15.564,-183.594
-0.360,1.592,-0.163,35.828,23.315,-195.801
-0.424,1.380,-0.244,13.855,29.541,-205.566
-0.424,1.263,-0.292,-8.240,31.616,-206.360
-0.394,1.223,-0.324,-27.893,25.513,-199.097
-0.367,1.305,-0.336,-41.260,15.442,-187.317
-0.390,1.442,-0.363,-45.837,10.803,-175.720
-0.414,1.556,-0.373,-44.006,8.606,-164.917
-0.421,1.558,-0.355,-39.734,5.371,-154.419
-0.449,1.556,-0.353,-31.799,-1.526,-141.174
-0.455,1.437,-0.356,-28.015,-11.169,-127.686
-0.448,1.476,-0.415,-27.344,-20.935,-118.286
-0.429,1.378,-0.449,-45.410,-31.067,-118.225
-0.389,1.410,-0.462,-67.505,-43.335,-124.695
-0.347,1.424,-0.443,-88.806,-56.580,-133.850
-0.356,1.624,-0.377,-100.464,-68.665,-142.090
-0.397,1.473,-0.285,-116.272,-73.914,-152.893
-0.463,1.575,-0.151,-116.211,-74.707,-157.166
-0.530,1.602,-0.002,-111.267,-76.294,-157.227
-0.588,1.637,0.124,-94.421,-75.500,-152.893
-0.609,1.676,0.214,-72.998,-77.148,-147.522
-0.680,1.698,0.196,-46.753,-76.721,-142.456
-0.720,1.565,0.159,-26.428,-77.148,-138.550
-0.819,1.369,0.090,-12.756,-77.026,-133.484
-0.959,1.163,0.024,-9.583,-72.266,-128.174
-1.060,0.948,0.006,-14.221,-67.322,-120.911
-1.169,0.823,-0.033,-24.048,-62.683,-110.352
-1.218,0.711,-0.050,-33.569,-49.927,-98.145
-1.260,0.651,-0.058,-43.091,-37.720,-84.351
-1.246,0.669,-0.025,-50.781,-26.062,-69.397
-1.243,0.700,-0.015,-55.359,-16.724,-52.612
-1.159,0.782,0.053,-57.007,-19.531,-32.715
-1.229,0.817,0.028,-55.420,-13.611,-12.024
-1.211,0.942,0.021,-42.786,2.563,9.766
-1.209,1.075,0.019,-21.790,0.366,35.095
-1.137,1.125,0.032,-0.488,-0.244,57.739
-1.121,1.149,0.044,13.062,-17.883,83.252
-1.181,1.146,-0.048,26.611,-25.940,107.483
-1.092,1.047,-0.086,25.146,-31.677,136.108
0.160,1.222,-0.196,2.441,-36.560,168.762
-0.077,0.746,-0.233,15.747,-38.940,147.461
0.635,1.186,-0.312,12.634,-34.180,121.033
0.434,1.235,-0.266,62.561,-26.855,116.577
0.234,1.152,-0.146,110.107,-20.325,119.324
0.395,0.849,0.048,130.737,-10.559,130.676
-0.368,1.051,-0.041,143.616,-6.226,140.442
-0.162,0.978,0.052,113.037,-5.371,144.470
0.175,1.454,0.143,49.927,-7.568,135.254
-0.429,1.606,0.243,47.852,5.737,135.132
0.177,0.959,0.296,-3.113,12.146,132.751
-0.177,1.493,0.033,-3.174,12.939,133.911
0.068,1.250,-0.160,-11.780,20.447,131.836
0.228,1.441,-0.338,-9.094,14.343,118.835
0.250,1.258,-0.387,-2.625,13.916,106.323
-0.000,1.536,-0.384,15.686,16.174,92.224
-0.016,1.087,-0.165,10.071,14.893,80.811
0.266,1.131,-0.168,-13.306,9.094,68.604
-0.182,1.375,-0.224,-16.846,10.132,56.946
0.302,1.362,-0.348,-9.033,-0.427,37.354
-0.015,0.995,-0.226,4.272,-3.662,27.893
-0.052,1.006,-0.090,2.991,0.732,20.569
0.028,1.021,-0.180,2.258,1.892,10.559
0.024,0.904,-0.100,-3.357,3.052,11.230
0.004,0.975,-0.187,0.610,4.944,10.132
0.100,0.927,-0.208,-11.597,4.578,6.226
0.016,0.866,-0.225,-23.804,3.052,1.526
0.016,0.954,-0.159,-22.827,5.737,2.808
0.138,1.003,-0.169,-18.372,4.272,2.441
0.153,0.996,-0.226,-11.108,5.737,2.808
-0.049,0.975,-0.187,1.343,9.155,7.996
0.141,0.984,-0.193,5.493,8.789,6.653
0.173,0.867,-0.167,-11.292,3.723,4.456
-0.071,0.968,-0.202,-22.278,0.244,5.310
-0.171,0.982,-0.195,-11.536,0.916,4.883
0.195,0.983,-0.276,-8.484,1.404,2.441
0.025,0.933,-0.176,-9.705,2.563,6.531
-0.378,0.972,-0.123,-9.888,2.502,10.010
0.356,0.908,-0.276,-17.517,1.770,0.183
-0.229,1.019,-0.166,-14.526,1.587,6.836
-0.166,0.980,-0.233,-5.859,3.052,9.399
0.099,0.930,-0.255,-9.094,2.502,2.563
-0.110,0.996,-0.161,-6.104,4.822,6.958
0.156,0.924,-0.235,-10.803,3.601,5.066
0.072,0.967,-0.253,-14.160,-0.549,4.150
-0.159,1.001,-0.216,-9.399,0.671,4.272
0.098,0.939,-0.251,-6.653,1.770,4.333
-0.048,1.004,-0.225,-2.808,3.174,5.188
-0.015,0.937,-0.195,-5.127,1.892,3.662
0.040,0.979,-0.230,-1.526,2.197,5.554
-0.048,0.947,-0.212,0.488,5.249,6.042
0.128,0.946,-0.259,-10.864,1.770,1.892
0.003,0.941,-0.245,-6.897,1.038,5.493
-0.216,1.000,-0.208,-7.202,-0.061,4.578
0.035,0.934,-0.245,-4.333,1.404,4.395
-0.137,0.977,-0.212,-0.183,4.761,6.409
0.004,0.890,-0.235,-6.775,2.930,3.540
-0.163,1.047,-0.213,-0.671,2.747,6.042
0.030,0.898,-0.268,-2.319,3.113,3.906
-0.074,0.993,-0.231,6.287,5.188,6.470
-0.164,1.000,-0.223,0.916,3.601,4.456
0.173,0.890,-0.265,-2.869,5.127,2.502
-0.093,1.044,-0.188,-0.122,3.906,4.517
-0.132,0.970,-0.225,6.348,4.578,5.310
0.188,0.914,-0.257,1.160,4.822,3.601
-0.150,0.974,-0.220,5.371,8.301,5.615
-0.324,0.985,-0.189,3.052,5.371,5.310
0.044,0.901,-0.246,-0.122,3.967,4.150
0.347,0.953,-0.273,-1.953,6.836,3.784
-0.382,1.001,-0.215,7.385,10.315,6.348
-0.228,0.938,-0.252,10.193,9.827,4.150
0.385,0.969,-0.278,11.047,7.263,5.676
-0.522,1.046,-0.162,25.757,9.460,10.864
-0.037,0.897,-0.315,17.700,7.751,6.226
0.115,0.947,-0.229,21.301,13.733,10.010
-0.091,0.955,-0.194,25.391,17.090,12.024
-0.275,1.070,-0.211,23.743,11.902,15.015
0.040,0.914,-0.233,16.785,15.198,18.127
0.196,0.915,-0.215,12.573,14.648,21.057
-0.238,1.059,-0.183,17.517,12.939,27.771
-0.078,0.953,-0.207,15.015,10.803,34.180
0.100,1.029,-0.204,13.611,10.376,41.321
-0.420,0.999,-0.171,13.184,10.864,49.438
0.190,1.092,-0.247,9.827,6.836,56.763
-0.050,0.949,-0.170,11.169,5.798,64.697
-0.382,1.009,-0.199,10.986,6.104,71.655
-0.007,1.065,-0.229,8.179,8.118,72.144
-0.189,1.090,-0.207,9.216,10.498,75.684
-0.184,1.170,-0.255,8.301,8.667,79.956
-0.234,1.056,-0.231,6.653,12.756,96.436
-0.085,1.112,-0.267,2.808,22.278,114.319
-0.168,1.171,-0.254,4.333,32.043,133.423
-0.098,1.245,-0.236,-0.488,40.283,152.100
-0.035,1.210,-0.229,-7.690,45.898,166.016
-0.313,1.189,-0.213,-7.935,50.537,179.993
-0.137,1.285,-0.282,-22.095,53.406,196.960
-0.241,1.505,-0.296,-24.475,57.312,215.942
-0.455,1.504,-0.356,-14.587,62.317,236.206
-0.560,1.667,-0.493,-6.409,65.979,249.390
-0.275,2.030,-0.644,-2.075,67.261,254.089
-0.674,2.029,-0.488,19.104,68.542,260.132
-0.686,1.788,-0.503,26.245,65.674,260.071
-0.144,2.389,-0.810,17.517,54.016,239.563
-0.691,2.238,-0.573,25.940,49.988,234.863
-0.204,1.639,-0.329,24.536,50.110,245.361
0.335,1.765,-0.311,27.039,45.471,245.789
0.362,1.461,-0.278,38.879,49.316,251.221
-0.164,0.781,-0.129,31.067,74.463,254.944
-0.024,2.041,-0.303,20.142,106.323,199.463
0.575,1.981,-0.235,15.625,116.638,124.268
0.834,1.855,-0.329,-18.555,123.230,60.730
0.683,1.696,-0.339,0.122,124.390,23.621
0.514,1.291,-0.309,18.250,119.812,-3.235
0.428,0.869,-0.260,33.875,109.680,-23.132
0.420,0.593,-0.278,41.443,98.328,-37.842
0.442,0.467,-0.313,47.607,85.999,-46.631
0.450,0.338,-0.334,50.598,72.449,-52.002
0.451,0.218,-0.358,42.175,59.814,-55.542
0.460,0.248,-0.410,27.222,48.218,-57.678
0.473,0.294,-0.443,11.963,37.170,-61.340
0.523,0.347,-0.464,-3.906,24.353,-69.580

0.475,0.438,-0.423,35.278,8.484,-83.130
0.521,0.544,-0.467,26.672,-2.991,-99.426
0.552,0.614,-0.482,16.785,-15.747,-120.056
0.548,0.669,-0.474,6.104,-31.006,-141.907
0.505,0.723,-0.462,-3.723,-47.058,-161.804
0.430,0.770,-0.445,-12.512,-61.707,-177.795
0.336,0.789,-0.420,-19.287,-74.097,-190.430
0.247,0.744,-0.390,-26.917,-83.130,-200.134
0.127,0.649,-0.330,-38.208,-87.219,-206.726
0.001,0.621,-0.265,-50.964,-85.815,-210.327
-0.103,0.654,-0.222,-62.927,-80.261,-209.534
-0.213,0.743,-0.195,-68.298,-71.472,-203.735
-0.297,0.815,-0.161,-72.571,-58.167,-197.510
-0.130,0.639,0.031,-97.900,-44.556,-195.740
-0.248,1.158,-0.131,-90.637,-27.344,-194.153
-0.104,1.412,-0.063,-73.425,-46.997,-191.101
-0.298,1.661,-0.181,-10.864,-32.349,-181.580
-0.316,1.692,-0.197,6.165,-2.380,-188.538
-0.335,1.653,-0.227,11.108,22.827,-200.134
-0.313,1.675,-0.229,9.949,33.630,-210.144
-0.347,1.526,-0.241,-0.549,31.494,-217.834
-0.379,1.396,-0.263,-18.188,29.785,-222.656
-0.395,1.362,-0.275,-32.349,24.902,-220.337
-0.510,1.566,-0.345,-29.541,23.010,-208.679
-0.537,1.459,-0.349,-32.288,28.625,-200.317
-0.509,1.588,-0.370,-32.654,30.762,-192.200
-0.498,1.641,-0.425,-36.011,33.264,-187.012
-0.463,1.717,-0.447,-36.621,29.114,-182.434
-0.439,1.729,-0.494,-37.842,21.973,-180.115
-0.375,1.725,-0.531,-41.565,12.451,-180.298
-0.340,1.609,-0.569,-56.580,-1.038,-183.960
-0.311,1.587,-0.551,-75.439,-18.738,-188.721
-0.342,1.527,-0.508,-91.003,-35.461,-190.552
-0.394,1.614,-0.434,-98.450,-53.162,-187.195
-0.474,1.433,-0.287,-121.033,-64.758,-184.082
-0.587,1.168,-0.036,-137.024,-70.129,-174.561
-0.678,1.360,0.165,-154.053,-73.059,-165.527
-0.787,1.775,0.301,-141.663,-71.228,-154.602
-0.768,1.991,0.433,-114.441,-73.853,-147.034
-0.929,2.216,0.357,-70.068,-77.148,-139.893
-1.054,1.937,0.330,-29.846,-79.590,-132.507
-1.292,1.549,0.246,-4.089,-79.651,-121.094
-1.542,1.083,0.202,-0.610,-79.468,-105.042
-1.798,0.666,0.167,-8.972,-72.327,-82.397
-1.911,0.362,0.199,-28.137,-60.425,-55.786
-1.757,0.238,0.351,-54.749,-58.899,-27.649
-1.819,0.409,0.263,-71.411,-44.128,-3.540
-1.639,0.726,0.326,-77.026,-35.156,20.935
-1.543,1.266,0.330,-62.561,-27.649,52.124
-1.527,1.537,0.206,-16.968,-7.385,78.186
-1.286,1.596,0.298,27.832,-24.414,105.164
-1.314,1.418,0.128,39.856,-12.207,136.169
0.305,1.507,-0.101,20.630,-10.986,174.011
0.187,0.499,-0.185,20.996,-5.310,147.278
0.402,1.344,-0.304,29.114,4.578,127.930
0.556,1.108,-0.207,77.942,8.606,125.610
0.249,1.197,-0.180,120.117,10.742,124.390
0.278,0.977,-0.153,151.306,9.155,133.911
0.073,0.992,-0.204,140.869,-2.686,139.465
-0.034,0.982,-0.294,104.004,-8.667,133.850
0.306,1.176,-0.285,61.157,-3.540,122.620
0.124,1.531,-0.143,63.721,-6.287,116.760
-0.194,1.271,0.062,70.251,1.709,122.742
0.173,0.806,0.113,35.461,5.188,133.606
0.135,1.313,-0.090,21.179,7.141,129.150
-0.423,1.266,-0.006,18.372,11.475,122.986
0.496,1.106,-0.186,-11.169,7.263,104.980
-0.260,1.538,-0.246,5.737,5.554,98.083
0.041,0.796,-0.111,-8.911,10.559,100.220
0.285,1.565,-0.318,7.263,6.592,87.341
0.050,1.010,-0.207,13.855,11.169,80.566
-0.013,1.271,-0.266,0.183,9.155,68.726
0.023,1.483,-0.312,14.465,3.601,53.223
0.173,1.134,-0.290,25.879,-0.427,38.208
0.017,0.984,-0.068,17.761,-0.488,25.513
0.102,0.921,-0.086,-2.747,3.174,13.306
-0.151,1.004,-0.152,-12.573,8.301,10.376
0.336,0.924,-0.195,-20.752,7.690,7.019
-0.041,1.075,-0.260,-12.268,7.141,3.540
-0.146,0.948,-0.137,-9.216,6.409,8.423
0.111,0.967,-0.189,-6.897,5.798,4.639
-0.015,0.990,-0.158,-11.719,2.319,4.211
0.108,0.946,-0.233,-12.878,4.028,5.005
-0.151,1.001,-0.165,-10.803,2.991,4.822
0.156,0.972,-0.206,-12.634,-0.183,4.211
-0.007,0.939,-0.157,-12.085,-0.366,4.333
-0.023,0.939,-0.170,-13.306,2.014,4.883
0.151,0.925,-0.208,-12.207,2.380,2.686
0.100,0.974,-0.220,-12.085,2.197,3.540
-0.012,0.870,-0.200,-5.493,3.357,6.958
0.135,0.916,-0.254,0.244,4.150,6.104
0.031,0.927,-0.224,-12.512,3.845,3.845
-0.083,0.903,-0.160,-17.822,4.395,4.822
-0.103,0.962,-0.115,-16.907,1.221,3.723
0.214,0.942,-0.230,-16.235,0.366,1.709
-0.035,0.993,-0.262,-5.554,4.272,6.226
-0.427,1.041,-0.141,5.249,3.357,10.254
0.354,0.866,-0.261,-4.700,2.014,2.686
-0.208,0.986,-0.172,-10.803,1.892,5.798
-0.199,0.954,-0.193,-18.799,0.610,2.869
0.123,0.991,-0.245,-18.799,-3.357,1.038
-0.130,1.009,-0.194,-14.709,-0.183,3.540
0.115,0.905,-0.245,-10.925,0.793,3.357
0.039,1.026,-0.265,-3.784,1.831,5.005
-0.201,0.965,-0.237,0.549,6.287,5.127
0.087,0.856,-0.257,-5.676,6.653,3.235
-0.046,0.970,-0.210,-8.545,7.080,3.235
-0.035,0.972,-0.214,-13.184,4.761,1.892
0.049,0.926,-0.238,-10.254,2.808,4.578
-0.056,0.917,-0.226,-13.184,3.418,3.723
0.078,0.991,-0.315,-14.465,1.404,2.014
-0.023,0.924,-0.202,-4.395,0.977,6.042
-0.184,1.001,-0.179,-2.136,-0.488,5.920
0.009,0.932,-0.261,-7.446,1.404,3.479
-0.050,0.964,-0.210,-1.404,3.418,5.615
-0.078,0.980,-0.268,0.671,3.845,5.493
-0.107,0.921,-0.239,0.916,3.723,5.493
0.004,0.902,-0.275,-5.432,1.587,3.540
-0.050,0.999,-0.233,2.747,2.686,6.042
-0.134,0.996,-0.229,5.432,3.357,6.104
0.226,0.900,-0.306,4.150,4.211,5.127
-0.100,1.049,-0.197,12.390,6.042,8.362
-0.093,0.927,-0.260,10.864,6.165,6.653
0.194,0.885,-0.299,4.456,5.676,5.188
-0.088,0.988,-0.187,11.658,6.409,7.690
-0.372,1.067,-0.216,16.785,6.042,8.301
0.121,0.878,-0.294,10.986,7.263,6.287
0.234,0.985,-0.292,10.559,10.925,7.385
-0.621,1.067,-0.136,24.109,11.353,12.024
0.130,0.891,-0.308,20.142,8.301,11.658
-0.041,1.083,-0.181,18.677,10.986,16.663
-0.493,1.010,-0.180,23.254,12.695,22.217
0.140,1.003,-0.272,17.883,8.850,25.696
-0.153,0.962,-0.133,18.677,14.709,32.837
0.060,0.976,-0.278,13.062,13.062,38.513
-0.006,0.999,-0.236,9.705,13.062,47.302
-0.145,1.044,-0.143,8.789,16.235,56.824
-0.155,1.057,-0.248,6.409,15.991,62.012
-0.042,0.913,-0.231,7.751,15.991,66.956
0.029,1.143,-0.233,6.409,13.611,69.092
-0.372,1.161,-0.190,8.850,15.320,73.853
0.150,1.093,-0.353,8.484,15.137,83.130
-0.175,1.112,-0.262,9.827,21.667,99.487
-0.437,1.209,-0.224,10.681,28.320,119.141
-0.010,1.143,-0.278,4.639,32.593,137.817
-0.323,1.229,-0.169,-5.127,41.809,155.579
-0.117,1.278,-0.244,-9.827,46.143,172.974
-0.506,1.354,-0.228,-9.399,50.781,192.322
-0.145,1.419,-0.363,-15.869,57.495,213.867
-0.391,1.636,-0.348,-12.939,64.392,235.596
-0.531,1.728,-0.432,-4.456,69.824,253.662
-0.260,1.968,-0.655,8.545,72.021,263.489
-0.620,1.853,-0.568,25.024,76.355,270.752
-0.547,1.881,-0.578,26.978,77.148,269.470
-0.221,2.178,-0.746,24.170,70.251,255.859
-0.407,2.253,-0.603,26.672,64.270,243.286
-0.508,2.043,-0.442,32.593,59.998,243.225
0.122,1.857,-0.413,39.124,54.871,246.460
0.581,1.657,-0.372,48.828,51.575,246.582
0.183,1.292,-0.244,67.688,61.462,259.705
-0.097,0.699,-0.131,37.964,89.294,244.873
0.382,2.650,-0.390,25.574,102.417,172.729
0.891,2.004,-0.308,-13.367,106.323,100.769
0.818,2.193,-0.350,-27.283,106.201,43.579
0.631,1.810,-0.341,4.578,101.318,-2.625
0.576,1.235,-0.263,29.663,92.712,-43.335
0.480,0.812,-0.226,57.129,82.520,-81.848
0.410,0.500,-0.273,80.139,73.425,-115.112
0.467,0.304,-0.338,91.125,64.453,-127.014
0.422,0.163,-0.331,85.144,55.298,-122.070
0.352,0.039,-0.314,67.993,46.265,-109.985
0.315,0.043,-0.372,51.575,36.560,-94.971
0.355,0.119,-0.429,41.931,27.283,-84.351
0.455,0.164,-0.413,31.555,18.616,-82.275
0.511,0.228,-0.404,22.217,8.850,-88.257
0.543,0.334,-0.418,14.160,-2.197,-100.098
0.570,0.472,-0.438,5.310,-14.282,-114.014
0.577,0.565,-0.438,-5.188,-29.114,-127.197
0.543,0.637,-0.444,-14.099,-45.654,-138.977
0.498,0.664,-0.434,-22.461,-61.096,-149.414
0.439,0.692,-0.419,-31.250,-74.280,-159.058
0.352,0.673,-0.383,-41.748,-84.534,-167.664
0.229,0.669,-0.338,-53.833,-90.454,-174.988
0.131,0.755,-0.306,-65.186,-91.431,-180.725
0.058,0.844,-0.272,-78.064,-93.140,-184.814
-0.097,0.989,-0.360,-77.332,-80.078,-187.744
0.051,0.999,-0.194,-87.219,-78.491,-196.228
0.118,1.455,-0.222,-88.257,-91.553,-191.040
-0.151,1.036,-0.201,-55.420,-93.079,-183.533
-0.210,1.417,-0.240,-45.227,-68.665,-183.289
-0.212,1.417,-0.214,-31.738,-45.898,-184.814
-0.208,1.628,-0.245,-15.076,-25.330,-186.523
-0.224,1.618,-0.265,0.671,-9.094,-189.514
-0.199,1.561,-0.253,4.395,-5.371,-194.336
-0.251,1.417,-0.274,-8.850,-4.272,-200.012
-0.311,1.389,-0.297,-23.682,-2.686,-202.942
-0.329,1.401,-0.308,-34.729,-0.366,-201.599
-0.370,1.461,-0.354,-39.429,5.737,-196.594
-0.360,1.512,-0.370,-42.725,12.207,-189.697
-0.305,1.513,-0.374,-43.091,13.977,-181.030
-0.324,1.676,-0.461,-32.288,12.512,-167.480
-0.284,1.592,-0.505,-26.611,4.211,-153.748
-0.275,1.496,-0.561,-29.053,-7.141,-142.883
-0.285,1.413,-0.589,-50.232,-19.470,-140.991
-0.317,1.445,-0.568,-83.008,-29.968,-148.193
-0.321,1.557,-0.470,-108.215,-40.039,-157.959
-0.395,1.718,-0.321,-118.347,-45.044,-164.368
-0.463,1.681,-0.154,-128.113,-46.265,-171.631
-0.567,1.843,-0.017,-125.122,-45.532,-172.302
-0.638,1.828,0.119,-120.728,-46.326,-171.204
-0.756,1.933,0.183,-106.934,-45.898,-168.030
-0.879,1.961,0.198,-86.853,-46.265,-163.757
-0.953,1.954,0.212,-61.279,-49.072,-157.104
-1.089,1.753,0.173,-34.180,-49.927,-146.790
-1.278,1.455,0.114,-17.578,-50.049,-133.789
-1.437,1.158,0.088,-13.306,-49.866,-117.371
-1.611,0.859,0.066,-17.151,-45.105,-97.473
-1.682,0.581,0.100,-33.142,-43.640,-75.806
-1.758,0.463,0.098,-49.194,-39.856,-50.964
-1.692,0.443,0.170,-63.965,-25.635,-29.602
-1.630,0.619,0.188,-69.885,-14.526,-9.644
-1.532,0.871,0.189,-66.040,-7.141,10.986
-1.474,1.330,0.225,-51.147,-5.859,44.067
-1.395,1.562,0.217,-8.240,-11.902,81.543
-1.220,1.553,0.243,36.865,-27.771,112.610
-1.305,1.261,-0.023,51.819,-23.132,144.958
0.386,1.516,-0.128,31.372,-10.315,184.143
0.291,0.681,-0.345,42.725,-7.507,162.048
0.471,1.262,-0.312,35.645,-3.601,130.920
0.556,1.108,-0.270,73.547,2.441,125.854
0.470,0.903,-0.158,102.112,11.475,121.155
0.135,1.016,-0.102,131.653,8.911,131.592
-0.083,0.942,-0.110,135.864,6.470,142.578
-0.017,0.932,-0.143,94.421,3.540,143.250
0.211,1.233,-0.152,54.932,0.000,132.996
-0.087,1.786,-0.108,58.838,5.920,122.314
0.226,1.298,-0.040,52.307,11.719,121.277
-0.106,1.165,-0.046,46.509,13.611,129.150

-0.170,0.769,-0.120,-14.709,9.338,11.963
0.238,0.991,-0.222,-18.555,8.789,8.301
0.055,1.038,-0.261,-8.911,7.080,5.798
-0.151,0.981,-0.146,-8.057,12.146,7.141
0.047,0.966,-0.099,-11.108,8.484,3.906
0.420,0.942,-0.278,-10.681,2.686,0.610
-0.237,1.066,-0.163,-3.479,7.019,8.301
-0.161,0.944,-0.126,-6.287,2.808,6.104
0.428,0.938,-0.299,-10.437,0.366,-0.793
-0.326,0.975,-0.079,-8.240,6.470,8.301
0.056,0.964,-0.244,-10.193,1.831,1.282
0.188,0.946,-0.267,-4.639,1.892,2.197
-0.001,0.953,-0.165,-0.610,4.028,6.042
-0.179,0.964,-0.171,-7.874,3.967,2.625
0.163,0.878,-0.281,-11.780,3.784,1.587
0.181,0.972,-0.191,-9.094,3.845,2.319
-0.087,0.975,-0.177,-8.972,4.761,2.258
0.062,0.846,-0.234,-10.376,3.479,3.113
0.173,0.945,-0.248,-10.315,3.052,3.479
-0.345,1.028,-0.125,-5.920,2.136,6.958
0.359,0.809,-0.302,-13.245,-0.793,2.625
-0.032,1.042,-0.175,-9.155,1.648,4.944
-0.258,0.966,-0.154,-8.606,1.648,4.761
0.110,0.850,-0.220,-12.146,-0.305,3.357
-0.117,1.051,-0.201,-11.047,1.038,4.028
0.046,0.937,-0.240,-11.292,0.366,3.906
-0.218,1.001,-0.210,-8.362,0.793,4.822
0.094,0.891,-0.232,-12.695,1.099,2.808
-0.050,1.027,-0.211,-10.132,1.770,3.662
-0.056,0.904,-0.216,-10.864,1.953,4.150
0.075,0.931,-0.248,-12.756,2.319,3.601
0.050,0.986,-0.285,-13.916,3.174,3.113
-0.079,0.921,-0.232,-8.362,3.967,5.005
0.089,1.023,-0.269,-4.944,2.625,4.272
0.032,0.911,-0.233,-2.563,3.235,5.371
-0.092,0.904,-0.192,-7.019,2.136,4.883
-0.182,1.006,-0.199,-7.690,-1.526,4.517
0.167,0.915,-0.339,-7.812,0.183,2.808
-0.018,0.995,-0.266,0.061,2.502,5.737
-0.468,0.997,-0.143,5.432,3.479,7.507
0.356,0.796,-0.338,-10.620,0.366,0.610
-0.211,1.140,-0.172,0.916,3.784,5.798
-0.216,0.913,-0.194,4.089,2.869,5.798
0.168,0.907,-0.358,-3.296,2.258,2.686
-0.182,0.985,-0.179,3.601,7.080,5.249
0.076,0.942,-0.281,5.432,5.981,5.127
0.048,0.950,-0.274,4.883,5.798,4.944
-0.130,0.990,-0.214,2.686,6.104,4.517
-0.022,0.902,-0.288,2.136,5.981,4.211
-0.027,0.945,-0.252,8.789,6.592,6.104
-0.024,1.090,-0.261,14.709,9.399,7.080
-0.121,0.912,-0.229,15.564,9.705,7.874
0.085,0.894,-0.243,10.620,7.996,6.836
-0.025,1.127,-0.306,11.719,9.521,7.996
-0.214,0.920,-0.204,19.531,13.123,10.803
-0.020,0.863,-0.211,18.066,10.071,11.780
-0.085,1.091,-0.202,17.639,11.597,15.869
0.002,0.862,-0.223,14.038,11.597,19.226
-0.199,1.037,-0.210,13.855,10.925,23.682
-0.012,0.929,-0.226,12.085,13.123,28.748
-0.070,1.028,-0.208,10.681,12.878,35.889
-0.092,1.007,-0.221,8.850,14.648,43.762
-0.005,0.965,-0.241,6.287,13.855,53.223
-0.010,1.056,-0.243,4.395,13.977,60.913
-0.149,0.989,-0.181,8.118,15.564,68.909
0.035,1.022,-0.299,8.057,15.442,72.144
-0.062,1.044,-0.231,5.798,19.226,77.332
-0.336,1.156,-0.182,9.216,17.090,86.060
-0.184,1.174,-0.278,5.188,17.761,97.290
0.236,1.115,-0.318,-4.272,24.841,112.793
-0.421,1.180,-0.171,-1.099,34.424,135.010
-0.384,1.171,-0.230,-1.404,40.588,158.264
0.303,1.125,-0.285,-16.968,46.204,170.593
-0.616,1.172,-0.155,-13.916,54.016,184.875
-0.266,1.557,-0.344,-20.081,54.626,204.041
-0.266,1.507,-0.367,-23.376,59.021,227.234
-0.219,1.488,-0.472,-21.179,65.674,245.789
-0.660,1.899,-0.517,-3.906,70.190,258.728
-0.572,2.023,-0.633,12.085,75.806,268.494
-0.186,1.947,-0.655,26.367,77.209,273.621
-0.531,2.153,-0.617,44.250,78.552,270.691
-0.367,2.190,-0.632,52.124,70.313,260.437
-0.166,2.334,-0.685,56.030,61.462,246.582
-0.378,2.152,-0.480,69.580,54.688,246.216
0.537,1.701,-0.458,69.824,46.570,248.657
0.290,1.555,-0.325,90.210,43.396,253.479
0.185,1.010,-0.221,99.915,52.063,276.489
-0.034,0.573,-0.180,54.138,74.585,263.916
0.352,2.232,-0.413,42.297,83.069,202.637
0.703,1.988,-0.330,12.085,87.769,140.076
0.681,1.970,-0.401,-7.935,87.158,83.435
0.603,1.579,-0.413,7.996,80.750,31.860
0.644,1.213,-0.374,26.978,73.364,-8.606
0.632,0.845,-0.331,50.171,64.087,-44.617
0.514,0.533,-0.319,67.688,54.626,-76.172
0.450,0.364,-0.321,70.984,45.349,-95.581
0.416,0.307,-0.333,63.171,36.072,-101.868
0.380,0.257,-0.355,48.035,27.649,-99.976
0.333,0.311,-0.398,35.767,21.301,-95.703
0.338,0.357,-0.410,29.907,15.076,-93.018
0.397,0.418,-0.413,25.818,7.019,-94.299
0.455,0.464,-0.412,21.667,-2.625,-100.708
0.488,0.509,-0.420,14.954,-13.123,-113.159
0.507,0.575,-0.439,8.179,-25.085,-130.005
0.500,0.622,-0.447,-0.549,-37.720,-149.292
0.467,0.694,-0.435,-9.155,-50.354,-168.518
0.425,0.743,-0.415,-16.724,-62.317,-184.448
0.362,0.754,-0.403,-22.766,-73.669,-195.496
0.273,0.713,-0.374,-28.992,-83.069,-201.599
0.151,0.684,-0.323,-37.231,-88.074,-205.505
0.042,0.717,-0.283,-45.959,-87.463,-207.458
-0.043,0.808,-0.271,-49.805,-83.679,-208.252
0.008,0.851,-0.176,-50.964,-80.994,-208.313
-0.302,0.890,-0.330,-76.050,-49.988,-218.445
0.067,1.255,-0.134,-89.417,-65.552,-218.872
-0.185,1.347,-0.229,-37.598,-79.834,-208.313
-0.279,1.451,-0.240,-19.897,-52.673,-209.534
-0.274,1.463,-0.223,-5.127,-28.015,-210.754
-0.326,1.443,-0.250,0.244,-1.892,-210.876
-0.307,1.427,-0.240,9.216,15.076,-205.750
-0.287,1.373,-0.243,3.540,17.883,-201.416
-0.273,1.393,-0.265,-13.733,15.015,-202.026
-0.294,1.528,-0.290,-27.588,11.841,-205.811
-0.326,1.637,-0.300,-34.973,14.954,-210.693
-0.391,1.720,-0.323,-38.818,21.851,-213.623
-0.423,1.729,-0.281,-40.161,24.536,-210.022
-0.488,1.655,-0.312,-36.926,33.508,-202.454
-0.453,1.692,-0.338,-37.598,35.706,-193.298
-0.435,1.671,-0.454,-41.382,35.217,-183.167
-0.387,1.645,-0.492,-51.147,25.696,-175.171
-0.355,1.649,-0.492,-64.758,11.719,-171.814
-0.398,1.646,-0.519,-82.092,-2.136,-174.255
-0.410,1.671,-0.455,-103.943,-15.259,-181.152
-0.461,1.708,-0.351,-118.530,-27.527,-185.364
-0.582,1.509,-0.131,-127.502,-34.119,-181.152
-0.755,1.356,0.104,-136.475,-31.921,-174.866
-0.845,1.621,0.282,-140.747,-28.809,-166.992
-0.890,1.771,0.387,-130.249,-26.917,-159.729
-0.908,2.040,0.413,-107.910,-34.180,-152.954
-1.007,2.077,0.380,-67.688,-42.603,-143.494
-1.218,1.778,0.321,-34.790,-47.485,-134.094
-1.428,1.455,0.274,-10.254,-52.002,-117.981
-1.638,0.912,0.248,-5.005,-52.124,-98.022
-1.815,0.561,0.230,-14.526,-48.157,-73.364
-1.846,0.282,0.250,-37.537,-47.424,-46.265
-1.819,0.220,0.248,-60.913,-48.035,-18.433
-1.676,0.356,0.254,-75.623,-39.063,5.859
-1.548,0.628,0.223,-80.017,-31.921,30.396
-1.473,1.265,0.276,-72.205,-26.245,65.308
-1.360,1.777,0.308,-24.292,-33.142,105.835
-1.462,1.782,0.139,32.104,-27.344,132.324
-1.034,1.312,0.061,34.729,-16.663,166.870
0.460,1.653,-0.221,42.114,-17.944,183.777
-0.060,0.997,-0.258,39.978,-1.953,143.738
0.501,1.424,-0.270,53.955,-0.732,122.070
0.468,1.123,-0.230,95.825,9.644,112.366
0.300,1.119,-0.190,130.615,7.935,110.840
0.073,1.020,-0.193,157.288,-0.427,123.108
0.196,0.798,-0.278,145.874,-6.714,137.756
-0.042,0.978,-0.288,90.515,-11.597,138.367
0.018,1.502,-0.202,65.857,-7.507,124.207
0.273,1.541,-0.016,53.894,1.709,110.168
-0.045,1.378,0.086,55.115,3.723,109.131
-0.220,1.047,0.103,37.842,7.324,113.037
0.218,0.995,-0.076,4.089,8.911,107.361
0.203,1.416,-0.275,-2.319,8.850,91.919
-0.365,1.002,-0.123,-4.578,12.207,90.393
0.517,1.078,-0.266,-19.165,10.254,80.811
-0.255,1.445,-0.258,6.897,11.658,79.224
-0.004,0.802,-0.125,-0.793,16.663,79.834
0.253,1.319,-0.371,5.066,12.451,67.688
0.097,1.038,-0.234,6.775,11.169,63.293
-0.023,1.342,-0.284,16.296,4.272,57.800
-0.024,1.365,-0.345,28.687,1.038,43.396
0.228,1.105,-0.278,32.227,-3.418,31.799
-0.007,1.004,-0.076,21.729,-1.953,22.644
0.052,0.851,-0.067,2.136,0.793,13.916
0.011,0.906,-0.125,-11.658,2.625,9.460
0.166,0.940,-0.127,-16.479,4.150,9.460
0.028,1.044,-0.283,-11.658,3.418,5.249
-0.097,0.900,-0.175,-12.756,3.845,8.728
0.036,1.019,-0.199,-12.207,5.676,5.066
-0.004,0.982,-0.203,-9.949,4.089,3.418
0.088,0.937,-0.219,-9.216,8.301,5.249
-0.106,1.010,-0.173,-6.714,8.240,5.005
0.120,0.939,-0.200,-9.216,6.592,4.517
-0.033,0.907,-0.193,-10.132,7.202,3.784
0.048,0.958,-0.191,-11.719,7.019,4.028
0.099,0.909,-0.228,-9.949,4.333,2.380
0.139,0.986,-0.268,-9.583,4.883,1.465
-0.005,0.905,-0.206,-5.615,2.747,5.981
0.112,0.954,-0.253,-7.080,2.869,3.845
0.106,0.919,-0.235,-5.188,5.432,4.578
0.002,1.000,-0.129,-3.906,3.296,7.996
-0.242,0.967,-0.130,-9.583,1.404,5.554
0.195,0.930,-0.238,-16.541,-0.549,1.343
0.108,0.967,-0.258,-12.634,0.793,4.578
-0.436,1.025,-0.131,-4.395,1.160,9.277
0.184,0.856,-0.229,-13.611,-2.136,2.197
-0.149,1.229,-0.213,-2.686,-1.892,7.446
-0.292,0.862,-0.168,-2.991,4.761,7.385
0.104,0.878,-0.249,-19.958,-0.122,0.305
-0.088,0.966,-0.217,-21.973,-0.183,2.441
0.165,0.913,-0.245,-18.066,-0.916,3.296
-0.116,1.057,-0.272,-11.963,-0.122,4.211
-0.102,1.026,-0.280,-4.272,4.028,4.272
0.157,0.908,-0.241,0.244,5.554,5.493
-0.075,1.021,-0.212,-0.061,7.568,6.042
-0.036,0.842,-0.245,-10.315,5.615,2.930
0.091,0.953,-0.257,-9.399,3.174,3.906
-0.229,1.030,-0.190,-1.770,1.282,7.202
0.189,0.881,-0.380,-11.841,0.916,2.258
0.013,0.956,-0.195,-2.319,0.427,6.348
-0.284,1.068,-0.213,4.517,2.441,6.653
0.078,0.852,-0.265,-1.831,1.343,4.272
-0.112,0.975,-0.193,-1.892,4.028,4.578
-0.002,1.008,-0.251,2.808,4.028,5.188
-0.218,0.940,-0.227,7.629,6.042,6.653
0.045,0.903,-0.285,0.183,5.981,4.211
-0.054,0.992,-0.202,0.793,5.310,5.249
-0.220,0.975,-0.227,2.319,4.028,5.493
0.216,0.879,-0.297,-3.967,2.380,3.662
-0.126,1.052,-0.231,3.052,4.883,5.859
-0.127,0.964,-0.273,9.521,6.348,5.981
0.210,0.927,-0.305,9.827,6.470,5.676
-0.151,1.031,-0.229,12.695,9.216,6.592
-0.348,1.030,-0.216,17.883,7.874,7.751
0.088,0.871,-0.271,14.282,7.935,7.385
0.393,0.959,-0.279,8.179,6.653,7.996
-0.460,1.016,-0.178,15.442,10.071,11.902
-0.206,0.890,-0.228,13.977,8.606,12.573
0.323,0.994,-0.294,8.545,10.925,15.564
-0.571,1.005,-0.105,17.151,16.968,22.827
-0.039,1.154,-0.279,14.465,10.010,26.367
0.052,0.945,-0.204,14.709,14.160,34.729
-0.079,0.955,-0.227,15.869,16.296,42.847
-0.229,1.038,-0.231,9.277,15.808,50.171
-0.101,0.958,-0.220,3.906,16.602,57.495

-0.036,1.184,-0.245,10.498,16.968,84.106
-0.051,1.054,-0.334,8.423,16.968,99.609
-0.258,1.086,-0.212,5.920,26.062,120.850
-0.022,1.210,-0.310,-1.526,32.898,139.526
-0.413,1.345,-0.198,-4.639,41.077,159.424
-0.105,1.266,-0.269,-14.526,47.729,179.504
-0.323,1.356,-0.272,-15.259,56.274,200.806
-0.423,1.520,-0.334,-14.465,64.453,221.375
-0.080,1.678,-0.450,-15.930,70.007,240.845
-0.495,1.748,-0.435,-7.568,74.951,258.057
-0.493,1.899,-0.564,4.578,77.881,270.203
-0.311,2.071,-0.690,19.714,78.003,272.827
-0.490,1.985,-0.591,33.875,78.796,272.827
-0.619,2.041,-0.574,39.673,72.937,266.357
-0.223,2.259,-0.679,35.217,61.279,252.991
0.098,2.279,-0.605,39.307,52.612,243.164
-0.148,1.925,-0.347,62.439,48.889,250.732
0.385,1.353,-0.265,71.533,52.002,269.226
0.436,1.149,-0.221,70.374,58.594,281.067
-0.154,1.004,-0.214,61.890,78.308,258.545
0.385,2.383,-0.406,59.937,88.196,190.063
0.803,1.879,-0.350,25.452,91.370,122.253
0.816,1.882,-0.467,-2.502,92.590,68.665
0.689,1.491,-0.432,11.292,89.233,29.297
0.622,1.016,-0.361,21.851,82.764,-5.676
0.567,0.744,-0.341,35.034,74.402,-33.813
0.511,0.527,-0.341,51.880,66.040,-55.847
0.447,0.356,-0.349,61.035,56.946,-73.425
0.439,0.251,-0.360,58.350,47.424,-83.740
0.445,0.255,-0.394,47.913,39.124,-86.426
0.436,0.305,-0.433,34.912,31.677,-85.693
0.436,0.380,-0.459,23.743,23.682,-85.205
0.472,0.464,-0.469,14.038,13.489,-87.341
0.517,0.539,-0.466,5.859,1.648,-93.506
0.559,0.606,-0.451,1.343,-11.475,-104.614
0.575,0.660,-0.451,-1.282,-25.635,-119.080
0.537,0.732,-0.453,-1.587,-39.307,-135.437
0.484,0.792,-0.444,0.305,-51.636,-151.733
0.415,0.783,-0.435,1.770,-62.927,-164.124
0.344,0.752,-0.459,0.610,-72.510,-170.776
0.266,0.745,-0.443,-5.737,-79.041,-174.561
0.147,0.677,-0.378,-19.775,-81.787,-179.260
0.012,0.746,-0.332,-29.846,-79.895,-185.303
-0.057,0.875,-0.289,-33.142,-74.463,-191.528
-0.021,0.926,-0.190,-42.542,-66.162,-201.538
-0.260,0.539,-0.252,-85.083,-36.926,-222.778
0.030,1.385,-0.132,-67.993,-65.430,-219.543
-0.241,1.133,-0.194,-39.001,-64.026,-213.806
-0.268,1.279,-0.195,-25.879,-38.818,-211.609
-0.306,1.285,-0.191,-21.423,-14.465,-209.717
-0.278,1.380,-0.226,-15.869,7.812,-207.336
-0.211,1.422,-0.223,-10.193,17.578,-204.956
-0.197,1.420,-0.246,-17.273,17.517,-207.886
-0.192,1.469,-0.268,-34.790,15.015,-215.576
-0.219,1.579,-0.286,-48.889,12.451,-224.731
-0.250,1.664,-0.299,-57.556,12.451,-232.056
-0.303,1.722,-0.325,-59.631,14.404,-233.643
-0.389,1.753,-0.408,-59.143,20.569,-230.835
-0.298,1.757,-0.378,-60.364,16.052,-224.304
-0.312,1.761,-0.434,-54.993,11.658,-214.844
-0.307,1.722,-0.433,-59.509,4.822,-208.740
-0.358,1.643,-0.447,-73.303,-1.770,-206.116
-0.428,1.644,-0.424,-92.102,-4.333,-205.444
-0.491,1.618,-0.298,-112.061,-10.803,-203.674
-0.604,1.679,-0.131,-126.892,-15.015,-200.989
-0.702,1.896,0.032,-128.906,-15.503,-196.228
-0.825,1.887,0.131,-133.606,-11.597,-193.176
-0.868,2.094,0.224,-123.230,-15.869,-185.364
-0.960,2.199,0.235,-103.088,-20.996,-177.673
-1.091,2.173,0.204,-74.280,-28.564,-168.518
-1.292,1.978,0.168,-42.480,-36.926,-157.104
-1.536,1.614,0.166,-22.644,-42.725,-142.456
-1.817,1.163,0.194,-10.376,-42.419,-121.033
-2.084,0.618,0.259,-20.020,-39.673,-95.764
-2.278,0.356,0.345,-40.222,-34.485,-64.880
-2.366,0.097,0.403,-68.237,-30.701,-32.959
-2.141,0.155,0.527,-94.666,-38.574,-0.610
-2.044,0.612,0.370,-91.858,-26.550,31.189
-1.674,1.061,0.336,-64.209,-19.592,61.035
-1.263,1.666,0.322,-26.794,-21.790,95.276
-1.048,2.305,0.223,39.795,-33.691,134.033
-0.519,2.109,0.071,86.548,-49.438,170.593
0.747,1.694,-0.376,74.280,-49.988,197.083
0.319,0.432,-0.287,78.735,-54.932,172.058
0.691,0.698,-0.215,43.030,-52.002,141.052
0.111,1.138,-0.195,82.764,-25.635,129.639
0.276,1.028,0.094,127.014,-31.311,135.742
-0.061,0.846,0.061,148.804,-12.756,153.381
0.003,0.660,0.059,123.596,-5.920,164.001
-0.234,1.489,0.084,87.830,-2.563,159.912
-0.167,1.734,0.268,67.810,9.094,150.269
-0.265,1.592,0.304,49.133,16.541,145.264
0.275,0.997,0.094,18.127,21.851,143.005
0.134,1.429,-0.260,-2.808,4.822,136.353
-0.118,1.439,-0.345,-8.789,-1.770,119.385
0.130,1.660,-0.401,1.831,-7.751,99.670
-0.062,1.406,-0.262,17.334,-5.554,85.083
0.027,1.125,-0.161,8.667,-2.014,77.515
-0.051,1.035,-0.155,0.549,4.761,75.623
0.104,1.446,-0.337,-2.380,12.329,62.256
0.030,1.302,-0.337,25.940,11.047,43.762
0.107,0.928,-0.273,22.888,9.766,27.954
0.133,1.043,-0.198,19.836,7.751,20.325
-0.119,0.860,-0.082,1.709,12.085,16.174
0.274,0.970,-0.205,-8.850,7.751,7.263
0.060,0.955,-0.179,-6.042,3.113,8.179
-0.194,0.967,-0.066,-5.981,4.944,11.414
0.094,0.892,-0.177,-14.221,2.625,5.615
0.440,0.949,-0.294,-14.160,1.099,1.770
-0.298,0.927,-0.123,-8.362,5.127,9.949
-0.087,0.942,-0.177,-7.935,0.671,6.287
0.340,0.966,-0.286,-7.507,-1.526,1.465
-0.328,0.921,-0.081,-7.141,0.793,12.085
0.049,1.018,-0.248,-7.812,0.549,4.333
0.146,0.912,-0.230,-9.277,2.869,5.005
0.025,0.896,-0.183,-14.282,7.812,6.042
-0.197,1.058,-0.198,-10.620,8.545,3.601
0.116,0.891,-0.270,-9.460,9.277,2.502
0.213,0.975,-0.199,-8.118,6.287,3.906
-0.069,0.940,-0.206,-10.559,5.493,4.944
0.020,0.877,-0.250,-17.883,3.723,3.784
0.149,0.946,-0.270,-18.555,1.099,3.601
-0.337,1.038,-0.099,-13.794,2.747,6.042
0.347,0.851,-0.326,-17.151,1.526,1.587
-0.035,1.027,-0.192,-10.315,5.737,4.944
-0.243,1.011,-0.194,-5.615,2.502,5.371
0.117,0.830,-0.227,-8.484,-1.221,4.211
-0.128,1.016,-0.176,-8.240,-1.587,5.737
0.040,0.936,-0.240,-4.089,-1.648,5.310
-0.224,0.908,-0.193,4.761,1.953,8.667
0.115,0.868,-0.255,-13.794,-1.343,2.747
-0.049,0.953,-0.204,-18.921,-2.380,2.808
-0.109,0.996,-0.259,-12.390,-1.953,4.517
0.145,0.894,-0.252,-4.822,-2.625,5.127
-0.023,1.038,-0.257,2.808,1.953,7.019
-0.098,0.894,-0.210,1.770,3.174,6.226
0.097,0.974,-0.275,0.427,4.150,4.517
-0.018,0.911,-0.252,-3.296,7.141,3.723
-0.157,1.047,-0.232,-0.549,4.272,5.493
-0.130,0.913,-0.225,-1.465,3.784,4.395
0.201,0.953,-0.306,-7.263,3.967,2.197
-0.085,1.005,-0.242,0.305,7.019,4.761
-0.461,1.052,-0.150,12.268,4.089,8.057
0.415,0.799,-0.332,-1.709,2.136,2.380
-0.274,1.102,-0.101,3.601,6.348,5.798
-0.224,0.968,-0.292,12.207,5.310,5.920
0.175,0.886,-0.292,4.333,6.104,4.028
-0.160,0.908,-0.097,-0.671,5.371,3.967
-0.053,1.019,-0.325,5.249,5.676,4.639
0.100,0.865,-0.253,3.418,6.287,4.517
-0.160,1.007,-0.221,0.000,8.545,3.967
-0.095,0.944,-0.299,0.977,9.644,3.723
-0.005,0.933,-0.224,6.226,10.742,5.737
0.041,1.012,-0.259,6.836,12.329,5.371
-0.289,0.996,-0.152,11.292,12.512,7.507
0.222,0.799,-0.312,6.836,12.085,6.592
-0.099,1.127,-0.218,6.531,12.756,7.568
-0.359,0.934,-0.218,9.766,12.573,9.888
0.082,0.886,-0.270,6.775,11.169,10.010
-0.148,1.065,-0.139,9.216,13.489,13.000
-0.039,0.970,-0.255,10.437,13.123,15.747
-0.268,0.981,-0.181,9.338,12.268,19.958
0.022,0.948,-0.233,4.272,11.353,23.254
-0.110,0.986,-0.210,3.113,11.963,27.832
-0.272,1.078,-0.186,5.981,13.062,35.217
0.124,0.931,-0.310,2.869,13.428,41.626
-0.172,1.060,-0.178,5.066,15.198,50.171
-0.233,1.007,-0.243,10.132,14.526,60.181
0.176,0.985,-0.281,5.554,15.137,70.557
-0.190,1.002,-0.149,3.967,18.860,84.778
-0.455,1.156,-0.219,1.160,15.869,98.450
0.112,1.150,-0.335,-9.216,17.456,109.253
0.061,1.123,-0.256,-7.935,24.475,123.108
-0.852,1.122,-0.167,-3.479,29.602,144.165
0.340,1.154,-0.448,-11.719,31.433,165.161
-0.480,1.009,-0.116,-23.315,42.114,179.504
-0.288,1.396,-0.280,-39.368,45.898,203.735
-0.041,1.335,-0.401,-43.457,51.147,225.037
-0.450,1.308,-0.326,-48.828,65.430,247.253
-0.479,1.957,-0.425,-38.940,72.388,271.362
-0.425,2.045,-0.596,-24.841,76.111,292.358
-0.276,1.896,-0.703,-16.296,81.299,306.824
-0.629,2.147,-0.644,-3.601,83.984,311.890
-0.546,2.333,-0.763,2.563,79.895,304.199
-0.388,2.449,-0.845,2.869,70.313,288.269
-0.641,2.409,-0.674,10.498,66.895,277.283
0.258,2.465,-0.580,20.935,58.960,268.250
0.505,2.329,-0.430,62.500,50.110,265.808
0.512,1.565,-0.305,90.698,46.997,282.288
-0.004,0.791,-0.166,83.008,60.181,286.804
0.310,2.455,-0.313,53.528,72.693,207.031
0.982,2.345,-0.554,55.725,65.125,124.268
1.147,2.162,-0.660,58.533,57.068,69.092
0.884,1.507,-0.484,65.063,49.377,27.588
0.619,1.097,-0.411,71.594,40.344,-7.751
0.469,0.701,-0.380,78.247,33.569,-36.438
0.383,0.486,-0.369,79.956,31.494,-58.472
0.339,0.370,-0.360,83.008,29.114,-72.876
0.301,0.249,-0.355,82.581,26.550,-80.505
0.278,0.164,-0.369,75.745,25.574,-82.703
0.286,0.150,-0.392,65.002,25.818,-82.092
0.320,0.182,-0.403,54.077,24.902,-80.688
0.353,0.238,-0.412,45.166,21.545,-79.407
0.375,0.302,-0.423,39.368,16.296,-79.407
0.389,0.354,-0.432,34.424,9.033,-81.177
0.402,0.377,-0.433,30.029,-0.122,-85.022
0.407,0.419,-0.434,24.963,-10.254,-91.309
0.426,0.505,-0.445,22.888,-22.095,-100.159
0.452,0.626,-0.481,22.705,-35.217,-112.549
0.475,0.738,-0.526,19.836,-48.706,-128.845
0.469,0.812,-0.556,10.132,-61.340,-150.146
0.409,0.839,-0.556,-5.615,-72.144,-176.270
0.323,0.876,-0.534,-24.414,-80.566,-204.712
0.271,0.977,-0.530,-39.368,-88.440,-229.553
0.237,1.108,-0.543,-44.128,-97.595,-246.155
0.159,1.179,-0.526,-41.077,-106.445,-255.249
0.030,0.994,-0.473,-62.317,-109.253,-265.381
-0.043,1.388,-0.404,-62.622,-118.286,-263.123
-0.291,1.032,-0.341,-61.401,-118.469,-257.996
-0.524,1.290,-0.466,-56.152,-95.459,-252.869
-0.322,0.895,-0.142,-66.833,-112.610,-241.882
-0.667,1.417,-0.361,3.723,-90.820,-205.261
-0.764,1.216,-0.390,1.221,-17.029,-195.312
-0.506,1.568,-0.263,-4.395,23.743,-196.411
-0.292,1.924,-0.240,-8.728,28.442,-206.177
-0.250,2.235,-0.318,-9.155,15.564,-228.821
-0.238,2.374,-0.441,-1.648,-13.672,-246.765
-0.450,1.954,-0.545,-2.502,-23.743,-255.676
-0.724,1.781,-0.584,-10.986,-19.470,-251.770
-0.922,1.519,-0.537,-26.001,-12.390,-238.892
-0.979,1.435,-0.452,-47.546,-6.775,-225.525
-0.995,1.482,-0.373,-71.777,-1.709,-218.262
-0.977,1.680,-0.221,-85.815,2.014,-214.355
-1.024,1.848,-0.066,-88.623,5.737,-210.022
-1.151,1.953,0.038,-82.642,10.315,-203.674
-1.224,1.894,0.134,-83.130,14.038,-197.021
-1.273,1.892,0.147,-76.355,20.630,-189.026
-1.189,1.870,0.210,-71.045,19.592,-182.678

-1.372,1.096,-0.002,2.625,-29.968,169.678
-0.013,1.125,-0.151,34.485,-5.676,169.312
0.094,1.004,-0.121,5.737,-16.418,130.188
0.385,1.667,-0.370,53.467,8.850,117.920
0.660,1.223,-0.209,86.670,7.751,105.835
0.247,1.278,-0.194,132.935,2.197,107.056
0.088,0.636,-0.036,127.991,3.845,120.544
-0.261,0.769,0.042,90.454,4.578,139.771
-0.087,1.134,-0.041,60.120,10.132,153.442
-0.083,1.573,0.014,41.992,9.766,156.250
0.117,1.431,-0.109,18.188,7.263,143.250
0.051,1.492,-0.166,11.963,3.784,133.789
0.061,1.381,-0.236,14.038,1.221,126.953
0.288,1.340,-0.297,10.925,-2.136,113.220
-0.111,1.478,-0.189,18.433,0.610,97.351
0.228,1.092,-0.157,8.728,2.625,82.581
0.060,1.205,-0.279,2.441,6.165,73.242
-0.262,1.187,-0.210,5.554,10.803,73.242
0.160,1.487,-0.333,24.048,6.470,59.509
0.444,1.148,-0.406,41.077,2.380,35.828
-0.494,0.988,-0.025,30.273,8.606,27.954
0.133,0.904,-0.080,0.732,7.996,14.954
-0.028,1.073,-0.199,-10.437,6.226,6.958
-0.203,0.991,-0.042,-15.808,7.996,14.343
0.232,0.981,-0.250,-13.550,1.831,5.005
-0.105,1.033,-0.136,-11.292,4.822,7.385
0.195,0.995,-0.259,-6.897,6.042,8.911
0.129,0.937,-0.220,-6.409,2.258,7.446
-0.057,1.057,-0.232,-5.249,7.874,6.226
0.096,0.940,-0.151,-8.789,5.005,6.409
0.097,0.925,-0.191,-12.024,4.822,6.470
0.070,1.008,-0.200,-10.620,6.775,4.395
-0.092,0.996,-0.158,-8.301,3.784,7.080
0.253,0.935,-0.246,-9.766,1.160,5.188
0.006,1.055,-0.190,-9.521,0.916,3.418
-0.143,0.937,-0.220,-6.653,5.005,5.005
0.026,0.940,-0.166,-5.127,1.831,3.174
-0.006,0.968,-0.142,-7.874,0.793,4.272
0.018,0.913,-0.234,-10.681,3.052,4.211
-0.056,0.999,-0.224,-10.498,2.075,3.052
-0.031,0.965,-0.204,-8.606,2.930,3.662
0.023,0.965,-0.201,-8.057,1.770,3.052
0.011,0.936,-0.202,-4.822,2.380,4.761
-0.034,0.992,-0.188,-5.432,0.916,4.089
0.206,0.931,-0.258,-7.996,0.000,3.113
-0.064,0.967,-0.197,-4.211,-1.282,5.798
-0.051,0.974,-0.227,-6.287,-0.793,3.906
0.193,0.907,-0.225,-9.155,1.160,2.930
-0.079,0.981,-0.190,-4.456,3.967,4.639
-0.337,1.036,-0.143,-2.197,2.197,5.127
0.142,0.842,-0.217,-11.169,0.244,2.502
0.303,0.981,-0.281,-12.939,0.977,2.563
-0.386,1.044,-0.193,-1.831,2.441,6.409
-0.159,0.864,-0.217,-7.202,1.343,2.441
0.301,0.936,-0.272,-11.230,3.906,1.343
-0.418,1.028,-0.150,1.465,7.202,6.592
-0.032,0.918,-0.272,-6.042,3.235,2.075
0.104,0.924,-0.210,-4.395,4.883,4.211
-0.056,0.968,-0.160,-2.441,5.188,5.127
-0.218,1.016,-0.245,-3.967,1.282,4.822
0.153,0.844,-0.267,-4.944,1.221,4.333
0.078,0.965,-0.206,-3.296,2.319,4.883
-0.166,1.045,-0.253,-2.625,3.540,4.333
-0.002,0.839,-0.235,-3.601,5.127,3.418
0.147,0.936,-0.208,-2.930,7.080,3.113
-0.402,1.041,-0.143,4.761,5.127,6.042
0.339,0.858,-0.309,-5.981,1.282,2.380
-0.095,1.031,-0.223,2.014,3.601,5.493
-0.353,0.957,-0.213,6.042,4.272,5.554
0.082,0.882,-0.268,3.418,4.517,4.272
-0.138,1.029,-0.207,12.695,8.728,7.263
-0.033,0.987,-0.243,11.841,6.531,6.531
-0.234,0.920,-0.210,13.123,8.606,7.202
0.051,0.922,-0.241,12.451,11.597,7.080
-0.089,1.026,-0.216,16.663,12.085,9.644
-0.202,0.988,-0.181,19.714,10.498,13.184
0.152,0.902,-0.223,11.536,8.240,14.099
-0.118,1.031,-0.216,10.498,12.512,17.151
-0.193,0.955,-0.179,11.841,13.855,20.508
0.200,1.037,-0.221,10.010,9.033,24.658
-0.138,1.075,-0.195,11.902,10.010,30.701
-0.446,1.008,-0.211,10.254,9.766,37.231
0.059,0.953,-0.250,6.714,9.888,44.922
0.272,1.009,-0.237,9.338,11.597,52.856
-0.525,1.040,-0.146,12.817,13.184,62.561
-0.274,0.931,-0.212,5.920,10.193,67.505
0.173,1.101,-0.278,-1.221,13.489,67.749
-0.686,1.118,-0.210,9.949,15.686,77.515
0.010,1.205,-0.361,8.911,15.198,87.219
-0.263,1.149,-0.192,11.047,26.672,109.741
0.080,1.092,-0.277,1.770,28.198,131.287
-0.089,1.272,-0.292,-9.766,37.598,151.550
-0.212,1.367,-0.265,-16.602,48.279,171.021
-0.313,1.403,-0.281,-21.301,56.519,193.604
-0.213,1.552,-0.335,-21.240,66.772,223.267
-0.018,1.632,-0.386,-21.973,73.547,252.258
-0.627,1.834,-0.355,-4.883,80.444,277.100
-0.101,1.957,-0.706,3.174,83.130,289.673
-0.674,2.267,-0.699,24.048,85.083,299.500
-0.778,2.190,-0.634,37.415,82.397,304.260
-0.343,2.440,-0.805,34.546,71.838,286.865
-0.378,2.712,-0.716,37.537,61.096,268.005
-0.028,2.372,-0.496,42.480,48.340,264.038
0.286,2.049,-0.342,59.753,38.452,267.578
0.659,1.415,-0.229,75.684,37.476,281.494
-0.145,0.745,-0.161,70.984,60.242,290.649
-0.021,1.768,-0.405,46.448,93.445,233.398
0.634,1.940,-0.338,32.593,106.079,155.762
0.984,1.752,-0.465,-22.522,115.356,88.562
0.840,1.675,-0.467,-13.428,118.896,47.913
0.700,1.279,-0.398,-1.099,116.211,15.930
0.603,0.965,-0.354,21.606,105.774,-8.667
0.550,0.624,-0.314,42.297,94.788,-29.419
0.550,0.401,-0.286,61.218,80.750,-45.898
0.508,0.215,-0.296,72.327,64.819,-61.584
0.489,0.113,-0.331,68.359,53.711,-74.707
0.480,0.145,-0.370,52.856,45.715,-82.031
0.463,0.218,-0.399,35.706,38.147,-85.876
0.464,0.289,-0.408,22.339,28.748,-90.393
0.492,0.382,-0.434,12.512,17.029,-98.206
0.541,0.467,-0.458,4.822,3.418,-110.779
0.584,0.507,-0.476,-5.554,-10.559,-128.174
0.580,0.549,-0.465,-17.456,-25.635,-148.804
0.533,0.640,-0.452,-24.353,-41.138,-168.030
0.481,0.712,-0.448,-25.513,-56.763,-179.810
0.398,0.708,-0.424,-29.907,-71.167,-186.646
0.294,0.667,-0.386,-38.391,-82.886,-191.040
0.168,0.634,-0.347,-47.668,-89.417,-194.214
0.055,0.634,-0.296,-60.303,-89.905,-197.144
-0.022,0.722,-0.263,-72.327,-86.426,-200.256
-0.103,0.810,-0.226,-85.632,-89.478,-203.247
-0.238,0.937,-0.265,-88.562,-79.224,-205.383
-0.048,0.998,-0.091,-102.844,-61.157,-220.276
0.057,1.638,-0.160,-106.995,-76.111,-216.125
-0.252,1.168,-0.168,-41.077,-83.618,-200.378
-0.300,1.516,-0.196,-19.409,-55.786,-197.388
-0.359,1.352,-0.193,-7.019,-17.822,-197.449
-0.333,1.543,-0.236,3.357,12.512,-197.144
-0.247,1.453,-0.202,9.705,18.250,-195.618
-0.266,1.419,-0.242,-3.723,15.991,-199.402
-0.261,1.421,-0.244,-26.672,10.864,-205.994
-0.305,1.528,-0.276,-39.429,6.958,-210.693
-0.324,1.598,-0.303,-46.509,7.141,-212.463
-0.363,1.682,-0.360,-47.668,12.085,-210.510
-0.361,1.727,-0.395,-45.288,17.334,-206.116
-0.365,1.739,-0.436,-44.800,20.447,-201.416
-0.351,1.807,-0.482,-45.593,19.775,-197.876
-0.324,1.786,-0.478,-48.401,7.141,-192.932
-0.351,1.734,-0.515,-54.504,-3.418,-190.063
-0.362,1.726,-0.512,-71.960,-16.846,-190.918
-0.391,1.683,-0.453,-89.233,-29.358,-192.017
-0.480,1.596,-0.319,-104.126,-37.048,-189.575
-0.622,1.643,-0.118,-111.084,-38.635,-182.983
-0.739,1.561,0.069,-125.061,-37.537,-178.406
-0.800,1.739,0.159,-121.460,-36.438,-171.326
-0.789,1.943,0.221,-106.506,-37.109,-163.940
-0.839,1.985,0.192,-81.543,-43.640,-157.227
-1.016,1.900,0.124,-52.917,-50.781,-148.376
-1.199,1.569,0.130,-28.748,-54.077,-134.521
-1.425,1.122,0.133,-20.691,-55.237,-116.943
-1.655,0.794,0.150,-23.499,-55.542,-93.018
-1.811,0.509,0.187,-39.978,-51.086,-67.017
-1.876,0.328,0.240,-61.890,-45.166,-40.894
-1.816,0.351,0.324,-82.764,-45.837,-15.381
-1.731,0.599,0.328,-93.018,-49.927,10.132
-1.614,1.177,0.371,-84.167,-43.457,44.006
-1.493,1.704,0.360,-33.325,-41.992,86.731
-1.383,1.706,0.318,26.550,-47.363,122.375
-1.383,1.351,0.165,46.387,-48.889,161.987
-0.297,1.541,-0.067,48.706,-38.818,200.317
0.352,0.277,-0.065,28.198,-40.771,169.678
0.141,1.687,-0.193,31.860,-31.128,144.409
0.542,1.727,-0.227,106.201,-6.287,135.559
0.324,1.360,-0.068,142.517,4.272,122.498
-0.042,1.198,-0.035,170.410,-3.174,128.113
-0.082,0.841,-0.088,146.729,14.038,128.845
0.208,0.783,-0.118,77.576,16.663,126.892
-0.267,1.563,-0.183,61.829,16.174,121.155
0.242,1.213,-0.025,52.917,16.357,124.451
0.002,1.230,-0.186,27.832,7.019,124.268
-0.113,1.165,-0.057,33.325,6.348,133.606
0.295,1.151,-0.135,5.066,-2.869,122.375
-0.038,1.465,-0.162,10.254,-3.906,112.061
-0.020,1.192,-0.102,-1.160,-1.953,98.022
0.041,1.172,-0.205,-4.272,6.348,88.867
0.290,1.193,-0.209,-6.409,7.935,81.909
0.040,1.240,-0.329,-1.526,8.118,72.754
0.015,1.095,-0.307,1.770,11.230,66.650
0.134,1.270,-0.342,4.211,11.108,56.335
0.119,1.185,-0.217,20.935,10.010,49.072
0.112,1.177,-0.320,28.015,7.141,35.950
-0.156,1.006,-0.173,22.339,6.042,29.175
0.114,0.967,-0.079,13.611,1.831,22.156
-0.113,0.984,-0.160,2.563,2.930,12.390
0.144,0.896,-0.133,-14.038,7.446,8.606
-0.183,1.007,-0.142,-14.343,6.836,8.606
0.185,0.938,-0.229,-20.081,5.920,5.005
-0.037,0.941,-0.219,-14.709,5.493,5.554
-0.044,1.022,-0.188,-10.864,4.944,7.019
0.207,1.008,-0.238,-7.141,3.479,4.639
-0.012,1.024,-0.240,-6.775,9.583,3.601
-0.011,0.956,-0.166,-4.578,6.165,5.859
0.224,0.945,-0.255,-6.775,5.798,1.648
-0.007,0.943,-0.182,-9.766,9.277,3.662
-0.210,0.948,-0.145,-11.475,5.615,4.578
0.076,0.970,-0.224,-9.766,0.366,2.441
0.360,0.964,-0.302,-8.667,0.916,0.488
-0.240,0.980,-0.181,-3.235,2.380,7.568
-0.197,0.918,-0.192,-3.967,-1.038,5.920
0.447,0.903,-0.271,-8.484,-3.296,0.916
-0.341,0.974,-0.114,-3.479,0.854,9.827
-0.023,0.940,-0.238,-8.362,-1.343,3.418
0.184,0.903,-0.224,-8.423,-0.061,2.563
-0.111,0.976,-0.153,-6.226,3.357,6.287
-0.130,0.937,-0.250,-9.827,2.014,3.418
0.235,0.900,-0.285,-9.399,0.427,3.967
0.016,1.020,-0.199,-7.996,1.587,4.639
-0.067,0.936,-0.205,-11.108,0.732,3.479
0.059,0.912,-0.220,-10.132,2.075,3.784
0.144,0.982,-0.220,-10.010,3.052,2.930
-0.305,1.002,-0.191,-7.751,3.174,4.517
0.294,0.814,-0.284,-13.062,2.502,1.953
-0.095,1.156,-0.268,-9.216,4.578,3.235
-0.203,0.877,-0.212,-5.615,5.127,3.845
0.010,0.923,-0.227,-5.249,2.991,3.296
-0.081,1.026,-0.210,-5.493,4.028,3.418
0.016,0.916,-0.206,-7.324,3.174,3.357
-0.115,0.983,-0.240,-5.066,0.977,4.944
0.001,0.927,-0.251,-6.348,1.343,4.089
-0.032,1.005,-0.262,-3.174,2.075,4.761
-0.040,0.928,-0.229,-0.061,2.991,5.737
0.015,0.951,-0.234,-1.709,1.892,4.456
0.117,0.976,-0.287,-4.333,3.235,2.869
-0.062,0.936,-0.195,2.869,5.493,5.432
-0.038,0.976,-0.260,2.625,6.470,4.089
0.155,0.850,-0.268,-3.418,7.690,2.869
-0.096,0.970,-0.185,-1.648,8.484,4.333
-0.302,1.003,-0.190,-1.343,5.127,4.089

-0.104,0.915,-0.264,14.465,5.432,7.385
-0.006,0.885,-0.226,15.686,6.653,8.057
0.117,1.028,-0.230,19.531,9.094,9.277
-0.387,0.990,-0.159,22.705,12.024,11.597
0.321,0.788,-0.272,14.954,10.864,10.010
-0.067,1.103,-0.206,17.517,12.756,14.221
-0.412,0.974,-0.186,19.043,11.658,19.531
0.113,0.903,-0.229,13.000,7.751,23.254
-0.188,1.051,-0.156,16.418,13.184,30.151
-0.021,1.053,-0.224,15.686,11.597,36.682
-0.293,1.012,-0.167,15.747,10.925,46.997
-0.027,0.968,-0.197,8.911,10.681,54.932
-0.089,0.967,-0.208,2.441,11.169,61.829
-0.276,1.027,-0.192,3.662,12.085,67.383
0.178,1.061,-0.270,2.869,12.451,68.970
-0.229,1.135,-0.210,4.272,14.709,72.815
-0.172,1.179,-0.300,5.981,16.418,83.557
0.080,1.130,-0.294,2.258,21.912,101.074
-0.162,1.044,-0.234,-0.488,29.602,122.375
-0.371,1.302,-0.217,-2.869,33.813,143.799
0.063,1.190,-0.245,-20.386,39.063,161.072
-0.223,1.320,-0.262,-27.710,47.607,178.589
-0.725,1.411,-0.232,-24.414,55.542,205.811
0.278,1.646,-0.449,-35.339,59.998,229.309
-0.580,1.596,-0.306,-22.888,67.688,258.057
-0.393,1.707,-0.536,-15.747,73.486,275.696
-0.332,2.241,-0.714,-0.977,76.904,284.973
-0.572,1.952,-0.600,14.771,82.703,294.800
-0.472,2.331,-0.593,28.992,79.712,289.429
-0.159,2.218,-0.620,34.119,71.350,276.611
-0.175,2.536,-0.648,40.466,58.167,263.672
-0.027,2.200,-0.448,51.880,47.546,260.193
0.413,1.857,-0.368,70.251,40.161,268.066
0.533,1.330,-0.288,78.613,38.269,280.518
-0.093,0.734,-0.134,74.097,53.650,295.959
0.105,1.419,-0.332,24.475,78.430,245.117
0.561,2.182,-0.374,22.583,88.318,176.819
0.922,1.960,-0.411,-25.146,96.497,113.342
0.832,1.923,-0.454,-27.466,96.863,65.796
0.722,1.500,-0.424,-6.348,90.637,25.452
0.680,0.981,-0.343,16.479,81.726,-10.925
0.685,0.655,-0.295,40.955,71.106,-44.922
0.607,0.392,-0.301,59.570,58.411,-76.843
0.559,0.290,-0.301,63.782,46.631,-99.854
0.515,0.298,-0.311,56.213,35.095,-109.619
0.482,0.337,-0.351,44.312,24.902,-110.229
0.431,0.366,-0.379,34.790,17.212,-108.276
0.422,0.406,-0.390,27.405,9.705,-108.643
0.460,0.464,-0.405,23.376,-0.427,-113.281
0.497,0.516,-0.429,20.325,-11.475,-121.826
0.519,0.580,-0.452,16.357,-23.071,-134.338
0.518,0.640,-0.469,11.047,-35.522,-150.391
0.498,0.682,-0.470,3.479,-47.791,-167.664
0.452,0.724,-0.467,-5.005,-60.303,-182.190
0.383,0.766,-0.461,-10.254,-71.777,-191.589
0.289,0.729,-0.426,-17.578,-80.872,-197.327
0.171,0.666,-0.367,-29.480,-85.754,-200.745
0.025,0.652,-0.305,-40.955,-84.839,-202.515
-0.092,0.753,-0.270,-46.082,-82.336,-201.660
-0.287,0.854,-0.295,-44.250,-65.918,-201.355
-0.212,0.312,-0.159,-88.074,-43.701,-215.393
-0.046,1.593,-0.128,-48.340,-69.153,-201.355
-0.257,1.037,-0.172,-21.118,-60.669,-195.740
-0.295,1.339,-0.186,-1.221,-32.654,-192.383
-0.283,1.290,-0.184,12.451,-9.399,-189.270
-0.290,1.403,-0.271,22.156,11.658,-186.523
-0.219,1.378,-0.277,21.240,19.958,-187.317
-0.189,1.389,-0.298,7.019,21.179,-193.726
-0.169,1.485,-0.305,-8.423,15.137,-201.416
-0.173,1.645,-0.350,-14.648,5.249,-208.130
-0.236,1.726,-0.412,-18.005,0.000,-213.806
-0.287,1.702,-0.473,-25.146,-1.831,-218.872
-0.364,1.685,-0.559,-33.264,-1.587,-219.543
-0.345,1.584,-0.518,-46.570,-7.874,-215.271
-0.451,1.708,-0.521,-53.284,-13.428,-207.642
-0.479,1.725,-0.422,-65.002,-18.005,-204.834
-0.534,1.721,-0.366,-75.378,-19.836,-205.872
-0.555,1.751,-0.302,-85.632,-18.311,-208.069
-0.554,1.734,-0.215,-95.337,-22.583,-208.252
-0.624,1.704,-0.151,-105.591,-22.278,-207.336
-0.667,1.722,-0.070,-115.417,-20.203,-204.285
-0.742,1.753,-0.001,-122.498,-21.362,-199.280
-0.810,1.832,0.059,-121.094,-20.325,-192.749
-0.826,1.857,0.146,-112.610,-23.987,-183.899
-0.954,1.900,0.122,-97.290,-25.513,-172.607
-1.011,1.737,0.185,-81.848,-29.846,-159.790
-1.185,1.532,0.136,-61.401,-30.884,-142.517
-1.355,1.309,0.105,-48.523,-32.471,-123.474
-1.471,1.083,0.140,-41.565,-36.560,-101.440
-1.608,0.829,0.155,-42.297,-33.936,-80.505
-1.673,0.683,0.220,-51.208,-34.363,-59.265
-1.722,0.637,0.243,-57.983,-35.400,-37.537
-1.683,0.726,0.285,-60.364,-29.724,-17.578
-1.617,0.838,0.308,-53.528,-25.696,4.150
-1.485,0.995,0.314,-36.804,-24.292,27.771
-1.362,1.076,0.302,-20.691,-26.123,54.932
-1.353,1.437,0.269,3.113,-30.762,94.360
-1.379,1.391,0.215,33.142,-37.109,131.042
-1.102,0.996,0.047,28.320,-35.339,159.241
0.911,1.231,-0.276,-25.024,-29.541,184.631
-0.213,1.061,-0.273,0.122,-7.996,160.706
0.902,1.599,-0.142,11.780,-13.000,127.197
0.038,1.593,-0.240,78.918,21.423,114.380
0.315,1.335,-0.119,140.015,33.447,113.831
-0.053,1.072,-0.135,165.955,34.485,119.812
0.074,0.764,-0.164,157.227,30.518,128.479
0.125,0.827,-0.327,129.517,14.343,129.700
0.354,0.948,-0.399,85.693,0.549,127.319
0.327,1.322,-0.373,66.589,-15.930,118.225
0.063,1.441,-0.179,72.083,-14.282,116.089
0.239,1.034,0.013,44.556,-14.832,118.652
-0.097,1.210,-0.007,32.593,-10.864,118.286
-0.300,1.237,0.087,18.555,-3.357,112.854
0.174,1.191,-0.059,-1.099,4.456,98.938
0.267,1.374,-0.262,-6.287,12.695,82.458
-0.480,1.018,-0.112,-4.089,16.907,85.693
0.537,1.082,-0.266,-21.179,12.939,77.332
-0.230,1.446,-0.302,3.479,13.855,68.298
-0.048,0.720,-0.101,-12.634,15.442,69.458
0.334,1.474,-0.353,-7.019,4.272,58.899
0.089,1.268,-0.229,7.874,2.319,48.157
-0.044,1.196,-0.279,20.569,2.136,37.720
0.022,1.002,-0.209,13.977,-1.038,27.039
0.235,0.937,-0.185,8.972,0.549,19.287
-0.105,0.884,-0.100,1.465,5.737,14.404
0.083,0.886,-0.156,-10.986,4.578,8.545
0.106,1.004,-0.210,-8.728,1.770,7.629
0.076,0.984,-0.142,-10.559,7.324,8.362
0.125,1.002,-0.243,-11.963,2.991,4.639
-0.119,0.944,-0.215,-13.794,7.263,6.958
-0.020,1.029,-0.175,-9.888,9.094,3.967
-0.007,0.998,-0.195,-6.226,8.179,2.686
0.088,0.914,-0.154,-8.545,7.568,4.944
-0.074,1.019,-0.172,-5.798,5.371,5.188
0.079,0.951,-0.215,-7.568,5.249,4.150
-0.003,0.968,-0.178,-6.226,2.197,2.869
0.024,0.939,-0.196,-8.362,0.854,4.333
0.063,0.932,-0.230,-7.568,1.526,3.174
0.198,1.038,-0.253,-4.272,-0.122,4.089
-0.087,0.912,-0.206,-3.418,4.150,6.653
0.113,0.969,-0.202,-4.822,2.380,3.784
0.130,0.897,-0.227,-6.958,1.709,3.479
-0.043,0.965,-0.175,-5.798,1.038,6.775
-0.232,0.984,-0.146,-3.845,-2.563,6.165
0.192,0.912,-0.233,-9.277,-3.723,2.258
0.095,0.974,-0.226,-8.301,-0.610,5.188
-0.431,1.006,-0.103,-2.930,-2.502,9.216
0.245,0.882,-0.223,-11.353,-5.859,1.343
-0.158,1.077,-0.196,-9.705,-3.723,5.493
-0.310,0.930,-0.193,-10.315,0.183,5.615
0.105,0.970,-0.298,-13.733,0.488,0.427
-0.140,0.976,-0.208,-9.827,5.005,4.211
0.160,0.881,-0.222,-13.367,6.653,2.197
-0.003,1.017,-0.228,-11.841,7.080,2.625
-0.119,0.911,-0.200,-9.094,6.775,1.831
0.080,0.935,-0.223,-0.916,5.920,4.822
-0.053,0.979,-0.224,-8.057,3.540,3.723
-0.051,0.930,-0.244,-17.761,-0.183,0.305
0.025,0.967,-0.258,-10.071,-0.854,3.235
-0.026,1.016,-0.229,-0.305,0.549,6.287
0.069,0.942,-0.330,-10.681,1.404,1.404
-0.059,0.888,-0.160,-7.263,0.977,4.639
-0.158,1.069,-0.219,0.244,2.625,5.127
-0.012,0.903,-0.238,-3.906,3.906,3.357
-0.001,0.918,-0.190,-6.409,2.502,3.357
-0.121,1.027,-0.277,2.258,1.709,5.798
-0.008,0.902,-0.229,3.113,1.343,5.798
-0.034,0.943,-0.256,-1.343,3.296,4.517
-0.011,0.921,-0.197,-3.296,2.747,4.517
-0.034,0.959,-0.223,-3.296,2.808,3.723
0.186,0.955,-0.287,-3.357,3.601,2.991
-0.123,0.964,-0.202,7.263,5.066,6.592
0.027,0.976,-0.297,10.559,5.066,5.554
0.096,0.901,-0.267,9.521,7.812,5.737
-0.148,0.960,-0.198,14.587,7.507,7.935
-0.231,1.003,-0.216,15.747,4.272,8.179
0.279,0.870,-0.283,2.869,2.441,4.639
-0.120,0.997,-0.222,9.155,5.920,8.118
-0.546,0.984,-0.185,15.991,6.775,8.667
0.580,0.863,-0.316,10.925,6.287,7.202
-0.413,1.077,-0.082,21.851,11.536,14.587
-0.191,0.912,-0.312,13.428,5.249,10.925
0.234,0.923,-0.266,9.216,9.644,11.963
-0.191,0.954,-0.158,17.395,17.029,18.616
-0.260,1.083,-0.220,15.686,15.015,21.606
0.048,0.958,-0.245,16.113,19.897,27.405
0.206,0.926,-0.228,17.456,18.005,36.133
-0.259,1.097,-0.152,15.442,18.677,45.105
-0.097,0.931,-0.252,10.132,17.578,54.443
0.080,0.964,-0.233,4.822,17.151,61.279
-0.209,1.074,-0.172,7.874,16.602,67.688
0.052,1.147,-0.290,4.089,13.184,71.106
-0.241,1.114,-0.235,3.784,15.503,80.811
-0.191,1.141,-0.265,7.690,15.442,97.229
-0.162,1.067,-0.227,3.418,21.240,113.403
-0.030,1.086,-0.236,0.061,29.053,130.676
-0.336,1.198,-0.164,-8.301,34.485,146.484
-0.059,1.220,-0.215,-23.804,38.696,165.405
-0.263,1.247,-0.216,-33.569,41.809,185.547
-0.384,1.395,-0.299,-42.664,49.377,206.055
-0.080,1.588,-0.358,-48.157,55.481,228.638
-0.422,1.775,-0.424,-38.330,60.669,250.916
-0.535,1.751,-0.532,-23.865,68.726,268.738
-0.250,2.045,-0.638,-9.521,74.463,277.466
-0.479,2.034,-0.545,12.512,77.698,284.973
-0.681,2.118,-0.531,32.532,77.759,286.743
-0.190,2.294,-0.686,36.316,64.392,276.489
0.032,2.556,-0.744,44.373,51.514,258.728
-0.429,2.079,-0.395,64.270,41.504,263.855
0.237,1.562,-0.312,66.162,36.560,278.503
0.653,1.387,-0.305,64.575,31.860,279.358
0.031,0.839,-0.155,70.251,44.189,292.847
0.048,0.796,-0.134,6.531,73.730,255.676
0.346,2.174,-0.319,-1.221,85.876,190.918
0.725,2.073,-0.287,-33.813,95.398,126.709
0.735,2.025,-0.332,-44.373,100.159,71.838
0.668,1.781,-0.349,-20.142,95.215,28.198
0.660,1.264,-0.309,13.855,87.891,-7.690
0.657,0.953,-0.292,42.603,78.064,-38.513
0.618,0.649,-0.295,68.420,64.697,-65.247
0.534,0.450,-0.323,81.970,52.063,-87.280
0.511,0.400,-0.353,83.130,40.649,-100.098
0.490,0.406,-0.377,76.050,29.236,-104.675
0.446,0.468,-0.413,70.984,17.944,-106.262
0.422,0.490,-0.449,68.909,6.287,-108.765
0.447,0.506,-0.495,62.805,-6.470,-115.051
0.475,0.510,-0.540,52.734,-21.057,-125.610
0.480,0.500,-0.556,40.283,-35.034,-139.954
0.447,0.501,-0.529,29.602,-47.729,-155.640
0.396,0.535,-0.509,20.630,-58.960,-169.189
0.346,0.592,-0.510,11.536,-69.519,-178.162
0.271,0.604,-0.492,1.648,-78.979,-184.509
0.180,0.608,-0.452,-8.850,-85.266,-189.026
0.102,0.664,-0.423,-18.311,-87.402,-192.627
0.038,0.752,-0.409,-25.330,-86.914,-195.862
-0.016,0.844,-0.391,-28.198,-83.862,-199.463
-0.070,0.880,-0.363,-30.762,-77.881,-204.468
-0.115,0.876,-0.329,-48.767,-67.200,-214.050

-0.243,1.411,-0.486,24.841,-16.174,-182.678
-0.222,1.521,-0.458,3.662,-7.568,-198.853
-0.265,1.621,-0.420,-11.292,-4.456,-213.745
-0.318,1.634,-0.378,-16.235,-5.615,-221.069
-0.455,1.588,-0.441,-23.743,1.526,-224.548
-0.406,1.695,-0.411,-23.499,-4.150,-219.299
-0.417,1.666,-0.472,-15.625,-3.540,-212.708
-0.378,1.698,-0.530,-20.020,-1.160,-212.585
-0.353,1.672,-0.554,-27.893,-2.319,-214.417
-0.390,1.572,-0.549,-40.710,-4.822,-214.966
-0.442,1.552,-0.513,-55.664,-8.667,-213.989
-0.507,1.506,-0.432,-71.228,-11.475,-210.754
-0.602,1.533,-0.315,-78.613,-14.099,-203.369
-0.683,1.450,-0.198,-86.975,-15.381,-197.937
-0.759,1.650,-0.106,-99.182,-8.057,-193.787
-0.788,1.636,0.021,-102.783,-2.808,-187.622
-0.870,1.758,0.113,-105.286,-0.671,-178.345
-0.950,1.915,0.166,-79.895,-0.854,-162.476
-0.943,1.698,0.185,-60.547,-2.197,-152.344
-1.051,1.579,0.135,-48.218,-5.249,-142.700
-1.159,1.480,0.129,-42.053,-14.160,-128.418
-1.323,1.190,0.126,-36.133,-18.250,-110.840
-1.469,1.024,0.144,-37.964,-22.156,-91.309
-1.575,0.867,0.171,-39.063,-24.536,-66.406
-1.612,0.766,0.227,-44.739,-32.288,-36.682
-1.579,0.760,0.331,-45.959,-46.265,-2.686
-1.773,0.844,0.143,-40.833,-26.794,26.428
-1.589,1.096,0.301,-31.494,-25.574,59.326
-1.893,1.073,0.333,-38.452,-28.503,118.103
-1.772,1.731,0.187,22.400,-38.208,179.993
-0.948,0.311,0.272,12.512,-55.603,178.955
0.048,0.738,0.050,1.526,-51.880,168.518
0.333,1.586,-0.102,32.898,-40.588,160.400
0.565,1.639,-0.071,83.679,-22.644,146.240
0.338,1.565,0.081,119.141,-13.855,127.930
-0.186,1.435,-0.008,140.320,2.686,122.681
-0.152,0.845,0.131,102.844,8.057,129.333
-0.242,1.036,0.050,62.866,11.536,135.864
0.150,1.251,0.013,40.161,18.005,137.634
-0.006,1.347,-0.080,34.729,21.729,142.212
0.186,0.914,-0.185,12.573,24.109,148.193
-0.052,1.268,-0.303,5.066,16.418,153.870
0.147,1.320,-0.397,1.709,15.747,143.494
0.081,1.569,-0.342,12.024,15.137,124.023
0.058,1.375,-0.215,11.841,12.329,105.835
0.265,1.427,-0.242,16.052,9.033,89.905
-0.038,1.100,-0.226,15.869,8.545,84.961
0.217,1.096,-0.268,5.920,8.545,78.918
0.134,1.480,-0.374,16.235,5.371,66.467
-0.214,1.168,-0.230,32.166,4.211,54.077
0.116,0.966,-0.200,26.367,-1.892,39.917
0.439,1.036,-0.249,19.836,-3.296,24.292
-0.406,0.934,-0.059,4.272,5.859,19.653
-0.012,0.865,-0.048,-14.893,8.240,11.536
0.172,1.115,-0.245,-14.526,5.310,5.005
-0.330,0.936,-0.098,-18.066,10.254,12.573
0.144,1.062,-0.262,-18.188,6.775,4.517
0.016,1.020,-0.220,-15.991,4.639,5.554
0.253,1.016,-0.216,-9.644,2.625,8.850
-0.057,0.983,-0.201,-8.972,3.601,6.470
-0.004,0.963,-0.227,-13.428,2.075,4.456
0.139,0.948,-0.279,-11.230,5.188,4.395
0.001,1.039,-0.224,-6.714,10.315,4.517
0.010,0.938,-0.228,-6.836,11.230,2.563
0.097,0.948,-0.242,-4.883,9.705,3.967
0.059,0.972,-0.177,-5.371,7.263,5.066
0.106,0.963,-0.257,-9.644,6.653,1.282
-0.043,0.969,-0.235,-5.737,7.507,5.981
-0.067,1.045,-0.163,-7.629,1.343,4.639
0.044,0.892,-0.216,-8.423,0.061,4.456
-0.003,0.963,-0.202,-6.226,-0.305,6.775
-0.053,0.970,-0.223,-7.935,-1.465,4.944
-0.078,0.925,-0.203,-10.193,0.305,4.333
0.017,0.948,-0.244,-12.695,-0.610,2.930
-0.033,0.937,-0.246,-10.681,1.587,3.662
-0.074,0.988,-0.235,-7.996,0.916,3.601
0.238,0.982,-0.266,-2.197,2.686,4.028
-0.084,1.015,-0.189,2.930,5.859,6.714
-0.079,0.898,-0.249,-9.399,4.700,2.380
0.212,0.868,-0.250,-20.325,3.296,-0.854
-0.086,1.073,-0.206,-8.057,1.648,3.967
-0.345,1.009,-0.215,3.906,2.014,7.019
0.142,0.853,-0.253,-3.296,0.732,4.028
0.311,0.962,-0.283,-7.996,2.808,2.441
-0.391,1.057,-0.153,4.272,1.770,7.690
-0.122,0.855,-0.223,0.183,-1.160,5.005
0.202,0.905,-0.301,-15.320,-2.258,0.916
-0.428,1.003,-0.118,-3.357,-2.319,6.348
-0.013,1.031,-0.326,-0.610,-3.052,4.089
0.047,0.857,-0.267,2.869,3.357,5.127
0.020,0.959,-0.172,0.305,5.005,4.272
-0.263,1.022,-0.276,1.160,8.179,3.662
0.045,0.885,-0.269,-1.343,6.836,2.441
0.191,0.944,-0.218,2.930,6.165,3.967
-0.146,1.037,-0.241,4.333,3.479,5.249
-0.049,0.806,-0.282,-1.221,1.709,3.296
0.096,0.978,-0.250,1.648,5.127,3.784
-0.312,1.071,-0.155,13.367,6.836,7.080
0.250,0.841,-0.367,4.883,4.883,3.784
-0.017,0.945,-0.174,7.812,7.446,5.432
-0.306,1.056,-0.212,14.648,6.042,6.531
0.063,0.859,-0.261,13.916,6.287,5.859
-0.148,0.993,-0.173,17.761,9.644,7.690
-0.070,1.003,-0.299,14.893,9.460,6.714
-0.171,0.925,-0.197,17.578,10.437,8.667
0.054,0.990,-0.248,16.418,11.414,8.911
-0.084,0.974,-0.202,15.808,13.916,10.071
-0.096,0.929,-0.197,12.451,11.536,11.597
0.215,0.999,-0.268,10.498,13.306,13.794
-0.143,0.942,-0.173,15.625,15.869,18.860
-0.043,0.998,-0.222,13.245,14.160,21.973
0.183,0.944,-0.232,9.766,11.902,26.367
-0.173,0.926,-0.168,4.272,10.986,30.273
-0.328,1.056,-0.192,2.075,7.690,36.499
0.214,1.030,-0.266,5.127,5.310,44.312
-0.142,0.970,-0.226,9.460,10.925,51.147
-0.634,1.020,-0.136,14.160,8.423,60.974
0.511,0.927,-0.336,4.089,7.629,62.256
-0.421,1.005,-0.080,5.615,15.442,67.200
-0.315,1.156,-0.291,11.047,7.629,71.594
0.162,1.105,-0.302,4.150,11.108,74.280
-0.212,1.118,-0.207,6.470,18.738,92.346
-0.418,1.193,-0.261,8.362,24.109,111.877
-0.137,1.113,-0.253,-2.930,34.302,131.104
0.186,1.092,-0.240,-7.019,41.199,148.987
-0.287,1.263,-0.203,-9.277,44.128,160.095
-0.286,1.236,-0.227,-16.113,47.302,176.147
-0.251,1.278,-0.282,-25.024,53.772,194.519
-0.170,1.309,-0.318,-32.410,62.561,216.797
-0.258,1.807,-0.379,-28.748,66.101,237.976
-0.576,1.559,-0.416,-14.465,71.838,260.315
-0.501,1.818,-0.612,-6.775,78.308,272.095
-0.651,2.142,-0.599,8.057,79.163,281.006
-0.497,2.010,-0.665,17.944,80.688,282.776
-0.552,2.209,-0.677,26.672,73.669,271.973
-0.349,2.194,-0.634,20.508,65.491,257.324
-0.256,2.149,-0.534,23.010,54.199,250.244
0.137,1.969,-0.427,36.560,47.729,252.319
0.440,1.632,-0.314,52.917,44.434,260.620
0.419,1.044,-0.245,58.044,52.368,275.452
-0.297,0.766,-0.114,29.297,79.590,254.028
0.217,2.314,-0.239,10.925,99.609,177.124
0.891,1.779,-0.447,-23.743,103.210,101.440
1.003,1.984,-0.517,-28.809,102.783,50.293
0.841,1.482,-0.372,-18.250,94.238,11.658
0.634,1.172,-0.301,0.916,82.336,-18.677
0.500,0.836,-0.262,27.588,71.106,-42.236
0.451,0.614,-0.247,49.377,60.913,-58.960
0.431,0.447,-0.246,64.819,48.462,-70.313
0.411,0.365,-0.281,69.763,35.828,-77.637
0.407,0.361,-0.333,67.505,26.245,-80.933
0.397,0.367,-0.357,62.500,18.799,-81.543
0.381,0.370,-0.374,55.176,12.390,-82.275
0.391,0.375,-0.404,45.898,5.676,-85.205
0.412,0.406,-0.443,34.119,-1.953,-91.125
0.431,0.457,-0.458,22.339,-10.681,-100.769
0.453,0.505,-0.466,13.977,-20.447,-116.272
0.458,0.519,-0.449,5.859,-29.907,-136.292
0.419,0.518,-0.424,-5.798,-39.124,-158.386
0.330,0.541,-0.406,-21.484,-47.485,-178.345
0.247,0.622,-0.416,-38.391,-53.955,-193.298
0.180,0.710,-0.423,-52.124,-60.364,-202.454
0.120,0.784,-0.429,-64.941,-66.528,-208.435
0.073,0.870,-0.424,-73.975,-72.266,-212.402
0.034,0.949,-0.389,-77.271,-77.026,-215.088
0.001,1.048,-0.367,-72.266,-81.238,-216.125
-0.040,1.112,-0.370,-62.927,-82.336,-216.370
-0.117,0.845,-0.366,-79.712,-77.637,-219.849
0.186,1.306,-0.196,-72.449,-89.478,-212.952
-0.350,1.133,-0.454,-66.895,-72.998,-212.463
-0.179,1.287,-0.267,-53.772,-87.891,-204.590
-0.456,1.482,-0.406,16.846,-79.163,-178.345
-0.580,1.175,-0.423,1.892,-35.217,-174.622
-0.442,1.340,-0.321,-6.775,-16.052,-171.448
-0.335,1.544,-0.324,-10.437,-15.442,-170.105
-0.248,1.656,-0.340,-14.221,-24.170,-175.049
-0.245,1.642,-0.354,-22.461,-29.968,-186.768
-0.287,1.590,-0.317,-28.259,-31.677,-197.693
-0.460,1.680,-0.359,-18.188,-30.701,-197.266
-0.569,1.486,-0.378,-19.043,-16.724,-194.580
-0.564,1.462,-0.369,-27.649,-6.531,-189.636
-0.545,1.453,-0.394,-37.354,0.732,-184.326
-0.491,1.494,-0.411,-40.894,4.761,-178.345
-0.435,1.521,-0.384,-40.771,1.221,-172.546
-0.434,1.500,-0.396,-43.701,-1.465,-169.373
-0.412,1.410,-0.366,-59.753,-9.705,-169.556
-0.448,1.391,-0.308,-74.219,-18.005,-170.288
-0.498,1.236,-0.200,-95.093,-21.057,-174.988
-0.545,1.472,-0.066,-104.736,-21.423,-174.255
-0.630,1.501,0.010,-107.422,-17.822,-170.776
-0.655,1.580,0.084,-105.713,-12.329,-166.748
-0.687,1.729,0.110,-88.562,-12.939,-158.997
-0.686,1.793,0.130,-62.988,-18.127,-149.780
-0.754,1.742,0.077,-37.537,-23.926,-140.930
-0.878,1.668,-0.012,-11.963,-33.569,-129.517
-0.917,1.284,-0.014,-6.653,-42.542,-119.995
-1.066,1.110,-0.090,2.625,-52.551,-103.394
-1.214,0.875,-0.145,-2.869,-57.129,-87.341
-1.273,0.716,-0.124,-13.428,-59.937,-69.153
-1.308,0.627,-0.080,-26.123,-68.420,-47.668
-1.309,0.624,-0.036,-37.048,-81.421,-22.827
-1.592,0.788,-0.197,-39.978,-61.768,3.479
-1.448,0.928,0.016,-30.518,-40.344,31.006
-1.494,0.938,0.023,-21.362,-34.729,60.303
-1.433,1.072,0.088,-11.719,-38.757,91.980
-1.415,1.052,0.095,-14.404,-51.758,125.610
-1.737,1.479,-0.001,-20.020,-46.265,182.312
-0.156,0.701,0.093,14.160,-43.701,189.392
0.288,1.045,-0.042,-2.563,-43.396,153.564
0.211,1.930,-0.216,69.885,-26.672,146.973
0.366,1.340,-0.081,130.371,-14.771,143.738
0.420,0.911,0.024,124.939,-3.906,132.874
-0.499,1.508,-0.085,155.090,2.563,139.404
-0.011,0.738,0.116,105.408,10.132,143.311
-0.333,1.539,-0.059,68.848,19.592,141.174
0.199,1.333,-0.075,52.429,25.635,139.587
0.244,1.326,-0.120,26.855,21.729,133.301
0.302,1.158,-0.206,9.766,17.822,130.432
0.077,1.255,-0.267,1.160,13.489,128.174
0.045,1.244,-0.233,-1.709,11.841,120.972
0.149,1.236,-0.240,-7.019,15.564,106.628
0.010,1.184,-0.105,-10.986,17.822,99.548
0.219,1.312,-0.287,-11.353,12.451,87.524
-0.145,1.158,-0.311,-7.385,9.216,87.708
0.157,1.504,-0.420,-3.113,7.080,77.637
-0.001,1.384,-0.478,33.936,3.845,52.185
0.095,0.995,-0.262,29.846,3.540,37.292
-0.125,1.056,-0.207,29.785,1.343,31.555
0.126,0.994,-0.183,17.212,3.540,18.921
-0.067,0.900,-0.152,5.737,6.531,10.925
-0.075,0.952,-0.090,-10.193,9.521,7.690
0.296,0.922,-0.248,-14.160,8.179,3.967
-0.070,1.001,-0.250,-14.282,12.024,3.967
0.002,1.004,-0.183,-11.841,11.597,4.089
0.294,0.995,-0.267,-10.315,8.362,0.732
-0.007,0.975,-0.197,-8.972,6.836,4.517
-0.262,0.993,-0.189,-4.578,6.165,5.615
0.180,0.951,-0.263,-4.578,1.953,1.953

0.252,0.965,-0.203,-12.939,5.920,7.446
-0.050,0.990,-0.147,-14.465,6.409,7.263
0.046,0.956,-0.204,-13.977,5.676,6.226
0.168,0.917,-0.218,-10.681,4.089,5.310
-0.260,0.983,-0.083,-10.010,0.854,8.545
0.281,0.980,-0.339,-8.484,0.732,2.808
0.072,0.945,-0.158,-6.775,-0.488,8.606
-0.179,1.009,-0.168,-6.714,0.610,9.216
0.073,0.904,-0.239,-7.324,-2.075,6.042
-0.096,1.075,-0.174,-0.977,-1.099,11.902
0.034,0.937,-0.214,-7.202,0.549,9.033
-0.150,0.932,-0.184,-18.494,-0.854,6.531
0.046,0.977,-0.233,-20.996,-2.136,3.845
-0.037,0.989,-0.182,-15.442,-0.488,6.104
-0.161,0.991,-0.187,-13.306,1.282,6.226
0.260,1.021,-0.168,-7.996,1.831,4.944
-0.114,0.984,-0.218,0.916,9.216,7.690
-0.075,0.929,-0.193,-5.493,6.531,6.897
0.182,0.835,-0.267,-24.170,8.484,-0.610
-0.057,0.977,-0.204,-27.466,8.301,0.549
-0.248,1.060,-0.149,-16.357,2.686,5.737
0.057,0.891,-0.230,-17.517,-0.732,3.906
0.307,0.979,-0.309,-21.301,2.625,0.488
-0.241,1.050,-0.223,-5.615,4.944,7.568
-0.299,0.969,-0.182,-0.183,3.479,7.629
0.470,0.828,-0.319,-15.564,1.099,-0.488
-0.408,1.069,-0.117,-7.507,3.113,7.324
-0.027,0.963,-0.294,-6.104,0.305,3.662
0.164,0.915,-0.294,-2.930,4.456,4.272
-0.121,0.975,-0.172,-1.465,5.798,6.409
-0.193,0.980,-0.268,-0.183,3.601,5.798
0.165,0.875,-0.270,-1.648,1.343,5.432
0.033,1.020,-0.228,-1.099,4.456,5.371
-0.094,0.927,-0.225,-1.221,4.272,4.944
0.026,0.878,-0.248,3.174,3.357,5.981
0.143,0.986,-0.254,4.883,4.700,5.615
-0.398,0.975,-0.170,7.874,6.348,7.568
0.310,0.779,-0.352,-3.540,5.005,2.136
-0.084,1.109,-0.233,0.916,7.202,5.249
-0.344,0.941,-0.205,6.165,3.967,6.470
0.101,0.854,-0.259,5.981,4.517,5.432
-0.176,1.037,-0.188,7.202,4.089,7.202
-0.013,0.964,-0.268,9.460,3.784,6.409
-0.245,0.982,-0.251,19.104,6.714,8.972
0.038,0.942,-0.264,15.137,6.653,7.446
-0.091,0.942,-0.220,15.442,8.972,8.484
-0.237,0.974,-0.217,15.076,8.606,9.216
0.244,0.883,-0.268,9.766,6.470,8.545
-0.168,1.045,-0.221,13.367,9.705,11.047
-0.129,0.984,-0.260,16.296,9.094,12.878
0.204,0.931,-0.269,11.780,9.460,14.282
-0.122,1.020,-0.177,18.677,11.536,21.240
-0.451,1.077,-0.185,21.729,11.230,27.405
0.178,0.883,-0.250,11.292,11.963,30.762
0.119,0.985,-0.242,4.639,20.081,34.302
-0.683,1.073,-0.107,7.507,19.775,45.410
0.307,0.958,-0.324,-0.977,14.404,52.551
-0.238,1.049,-0.117,5.493,20.630,62.134
-0.423,1.055,-0.223,9.216,15.869,68.848
0.297,1.069,-0.346,-1.221,9.827,67.322
-0.324,1.112,-0.172,-1.831,16.968,78.308
-0.229,1.241,-0.303,8.423,18.616,97.290
0.027,1.038,-0.288,5.310,24.109,114.807
0.144,1.097,-0.284,-0.183,31.738,132.812
-0.265,1.276,-0.227,-5.920,37.720,147.339
-0.222,1.260,-0.222,-15.442,42.969,166.260
-0.063,1.214,-0.248,-29.114,47.241,186.462
-0.466,1.352,-0.284,-35.583,52.490,209.595
-0.072,1.640,-0.415,-44.861,59.570,228.271
-0.317,1.544,-0.383,-36.499,71.106,252.625
-0.496,1.735,-0.480,-25.940,73.792,270.630
-0.504,2.136,-0.674,-9.644,76.843,281.067
-0.444,1.998,-0.599,8.301,83.435,287.354
-0.380,2.258,-0.598,25.696,79.529,283.020
-0.390,2.236,-0.583,31.799,71.594,273.071
-0.189,2.648,-0.609,43.884,59.814,259.521
0.046,2.276,-0.411,68.665,45.105,262.634
0.425,1.887,-0.309,85.693,33.447,270.813
0.625,1.430,-0.286,101.074,24.780,279.175
0.067,0.780,-0.132,102.051,32.837,293.640
-0.120,1.213,-0.169,51.392,61.279,248.657
0.305,2.079,-0.155,41.931,79.041,183.655
0.641,1.889,-0.223,-7.019,95.276,122.803
0.515,1.834,-0.257,-11.414,106.873,74.280
0.424,1.566,-0.250,3.113,111.450,29.541
0.454,1.251,-0.256,26.123,113.098,-9.277
0.486,1.021,-0.296,59.692,112.671,-41.382
0.456,0.662,-0.314,86.243,108.154,-71.777
0.432,0.415,-0.333,96.008,101.074,-96.130
0.435,0.293,-0.372,88.562,93.933,-109.070
0.425,0.267,-0.412,73.669,86.060,-112.732
0.421,0.244,-0.428,59.265,75.195,-112.976
0.438,0.270,-0.448,48.096,62.195,-113.770
0.478,0.326,-0.471,39.856,47.302,-117.004
0.545,0.396,-0.500,31.128,30.090,-124.268
0.606,0.463,-0.512,19.836,10.254,-135.498
0.609,0.533,-0.496,7.446,-10.193,-150.574
0.552,0.632,-0.471,0.122,-29.907,-166.443
0.495,0.686,-0.467,-5.249,-48.523,-180.969
0.409,0.672,-0.460,-12.268,-64.514,-192.871
0.327,0.651,-0.450,-20.447,-76.599,-201.904
0.263,0.614,-0.427,-32.715,-84.961,-208.252
0.165,0.595,-0.377,-48.645,-89.783,-212.952
0.017,0.627,-0.306,-63.232,-88.562,-215.942
-0.154,0.750,-0.235,-73.730,-80.688,-214.417
-0.275,0.945,-0.170,-69.275,-70.435,-206.787
-0.316,1.001,-0.118,-63.110,-56.885,-199.341
-0.351,0.661,-0.086,-93.445,-36.194,-201.599
-0.173,1.371,-0.088,-79.102,-32.410,-196.594
-0.213,1.201,-0.141,-70.923,-31.128,-198.914
-0.261,1.476,-0.285,-58.716,-13.245,-201.111
-0.131,0.786,-0.118,-79.224,6.775,-215.149
-0.169,2.138,-0.284,-0.305,-6.592,-192.383
-0.359,1.576,-0.296,31.189,9.277,-187.805
-0.344,1.530,-0.192,0.549,31.921,-201.721
-0.295,1.580,-0.194,-20.081,37.354,-210.693
-0.303,1.592,-0.210,-30.273,31.067,-212.219
-0.370,1.445,-0.224,-44.250,24.414,-209.473
-0.490,1.405,-0.307,-59.143,30.823,-204.712
-0.430,1.365,-0.256,-74.829,32.471,-197.754
-0.489,1.594,-0.338,-70.068,36.011,-184.021
-0.452,1.533,-0.331,-77.087,38.269,-174.255
-0.461,1.564,-0.331,-83.557,32.593,-164.368
-0.484,1.618,-0.345,-91.614,27.039,-155.090
-0.522,1.602,-0.329,-96.497,19.226,-145.325
-0.511,1.584,-0.294,-102.539,7.996,-137.573
-0.552,1.515,-0.259,-114.563,1.160,-134.277
-0.550,1.516,-0.125,-125.854,-6.287,-132.446
-0.580,1.495,0.011,-135.132,-15.808,-130.920
-0.652,1.564,0.162,-141.052,-19.592,-130.737
-0.667,1.813,0.349,-133.240,-25.757,-133.118
-0.725,2.207,0.414,-106.873,-34.424,-135.620
-0.778,2.197,0.439,-65.674,-46.631,-135.437
-0.961,1.822,0.334,-33.508,-53.345,-133.301
-1.157,1.399,0.249,-12.451,-60.730,-122.314
-1.334,0.996,0.166,-1.038,-64.331,-103.394
-1.445,0.669,0.097,-5.676,-63.660,-82.092
-1.455,0.487,0.074,-24.658,-69.397,-60.608
-1.442,0.496,0.047,-41.626,-74.402,-39.124
-1.371,0.634,0.075,-50.415,-68.787,-20.020
-1.274,0.755,0.159,-55.481,-74.219,0.488
-1.448,1.072,0.113,-53.528,-58.716,26.184
-1.313,1.315,0.304,-29.663,-46.631,60.608
-1.501,1.179,0.169,-2.014,-51.086,93.750
-1.505,1.050,0.250,-10.437,-45.166,124.207
-0.874,1.401,0.137,-31.128,-41.443,174.683
-0.198,0.630,0.158,-15.686,-35.645,163.940
0.380,1.601,-0.058,-2.502,-24.353,132.446
0.531,1.983,-0.105,95.520,-8.179,124.695
0.025,1.503,-0.152,168.762,-0.061,112.976
0.815,0.813,0.047,180.786,-4.211,120.605
-0.766,0.978,-0.228,178.528,7.874,132.935
0.147,0.398,-0.094,124.939,16.174,150.391
-0.016,1.252,-0.232,60.974,7.874,157.043
0.355,1.328,-0.182,47.974,7.751,153.931
0.130,1.480,-0.135,26.733,9.216,138.672
0.076,1.479,-0.016,14.893,4.883,127.197
-0.041,1.441,-0.121,10.010,7.080,115.906
0.028,1.275,-0.146,7.141,8.423,104.126
0.265,1.212,-0.237,-2.319,6.897,88.135
-0.115,1.258,-0.183,5.310,4.150,81.360
0.293,1.093,-0.325,-1.404,5.188,71.106
-0.031,1.267,-0.254,9.338,6.226,66.711
-0.000,1.095,-0.224,9.949,3.906,61.768
0.094,1.523,-0.381,29.236,-2.930,46.265
0.085,0.948,-0.203,30.762,-2.930,36.621
-0.082,1.127,-0.180,31.982,-2.869,31.982
0.095,0.938,-0.108,17.883,2.747,20.569
-0.037,0.912,-0.115,4.211,1.221,11.230
-0.065,0.931,-0.065,-12.878,4.883,8.972
0.247,0.958,-0.211,-18.066,7.324,6.042
0.014,1.047,-0.220,-14.954,8.667,5.859
-0.048,0.989,-0.141,-12.146,8.484,7.324
0.263,0.990,-0.238,-12.451,5.493,2.625
0.010,0.945,-0.213,-13.367,9.216,4.150
-0.249,0.989,-0.142,-13.306,8.301,5.798
0.153,0.945,-0.209,-13.672,4.761,2.625
0.410,0.967,-0.271,-13.245,4.089,1.892
-0.281,0.982,-0.112,-7.935,3.540,10.010
-0.104,0.955,-0.178,-7.629,0.916,5.920
0.321,0.919,-0.255,-12.085,0.977,-0.610
-0.342,0.929,-0.099,-11.536,4.089,8.301
0.049,0.995,-0.261,-10.498,0.244,3.479
0.122,0.906,-0.276,-8.240,0.305,3.357
-0.006,1.027,-0.154,0.427,3.906,9.583
-0.218,0.953,-0.176,-9.644,6.348,5.310
0.183,0.840,-0.219,-23.437,5.859,1.282
0.147,1.029,-0.177,-20.813,2.747,3.174
-0.077,1.005,-0.190,-16.968,-1.770,5.066
0.047,0.915,-0.236,-15.320,-2.258,4.700
0.170,1.032,-0.213,-5.737,-1.160,5.676
-0.377,1.030,-0.166,7.690,4.395,10.132
0.358,0.744,-0.298,-11.841,3.296,3.357
-0.076,1.038,-0.215,-23.987,1.953,1.526
-0.302,0.960,-0.205,-15.442,0.793,3.479
0.083,0.968,-0.249,-4.883,1.709,5.554
-0.109,0.968,-0.208,-12.085,0.916,3.784
0.022,0.923,-0.242,-14.160,1.099,2.197
-0.193,1.086,-0.237,0.366,2.136,6.226
0.070,0.918,-0.244,0.549,3.052,5.371
-0.048,0.940,-0.235,-5.310,3.052,3.845
-0.101,0.944,-0.232,-6.470,1.587,3.662
0.097,0.918,-0.258,-4.944,1.831,3.723
0.015,0.994,-0.269,-6.287,2.930,3.235
-0.047,0.908,-0.207,-3.296,2.075,4.822
0.069,0.988,-0.276,-4.883,3.113,3.235
0.037,0.957,-0.256,-3.052,3.357,3.723
-0.163,0.978,-0.203,4.944,4.150,6.287
-0.171,0.959,-0.215,5.310,3.052,5.005
0.213,0.899,-0.310,0.122,3.662,2.502
-0.052,0.994,-0.220,7.874,5.005,6.592
-0.504,0.992,-0.149,12.756,2.747,8.484
0.462,0.762,-0.358,-5.005,1.099,1.160
-0.280,1.133,-0.100,2.991,5.981,6.653
-0.235,0.970,-0.251,8.606,2.014,5.981
0.220,0.923,-0.320,5.554,4.333,4.761
-0.180,0.959,-0.106,10.193,6.653,7.141
-0.115,1.037,-0.305,19.409,6.226,8.423
0.193,0.853,-0.250,17.029,5.859,8.423
-0.048,0.981,-0.216,13.977,6.714,8.606
-0.136,0.974,-0.273,12.695,6.470,8.667
0.016,0.833,-0.213,12.207,6.531,10.010
0.139,1.035,-0.271,10.132,9.399,10.193
-0.443,1.016,-0.135,16.174,10.742,15.076
0.348,0.829,-0.317,11.292,8.850,16.479
-0.089,1.047,-0.190,12.695,14.832,20.752
-0.418,1.087,-0.177,16.113,17.456,26.184
0.100,0.873,-0.229,9.949,14.282,31.555
-0.255,0.969,-0.141,4.700,17.456,38.940
0.028,1.017,-0.180,2.808,15.198,47.119
-0.309,0.996,-0.161,4.089,15.198,57.678
0.036,1.059,-0.272,2.747,17.212,64.148
-0.147,1.072,-0.247,2.930,15.137,67.505
-0.292,1.197,-0.282,5.371,14.343,73.059
0.148,1.051,-0.318,5.249,16.296,82.764
-0.267,1.146,-0.229,9.583,23.682,99.426
-0.061,1.037,-0.279,7.751,29.053,113.770
0.067,1.163,-0.234,-2.380,35.950,125.549

-0.033,1.071,-0.310,-17.090,38.635,151.794
-0.049,1.240,-0.311,-24.536,49.927,165.833
-0.369,1.417,-0.239,-21.729,58.838,179.932
-0.289,1.371,-0.280,-24.414,64.148,200.928
-0.118,1.531,-0.475,-31.433,71.716,221.680
-0.659,1.595,-0.365,-23.132,75.867,243.591
-0.156,1.995,-0.635,-18.982,74.768,253.967
-0.470,1.793,-0.563,0.427,80.261,266.357
-0.704,1.814,-0.490,11.963,79.468,273.376
-0.365,2.122,-0.684,7.385,72.876,265.259
-0.449,2.257,-0.611,12.329,65.369,253.967
-0.260,2.152,-0.516,15.320,55.847,248.291
-0.153,2.130,-0.418,31.982,48.523,250.854
0.480,1.813,-0.339,46.143,41.687,256.958
0.283,1.458,-0.272,65.430,42.175,269.897
-0.145,0.772,-0.114,54.504,62.012,276.672
0.009,1.991,-0.242,25.452,93.994,217.773
0.559,1.934,-0.256,4.517,104.614,139.526
0.864,1.972,-0.425,-27.161,111.328,73.486
0.832,1.570,-0.333,-17.761,111.328,28.687
0.636,1.206,-0.312,-8.362,105.530,-9.949
0.510,0.872,-0.280,11.536,97.839,-40.222
0.461,0.599,-0.266,29.480,90.637,-61.035
0.467,0.401,-0.255,37.537,80.872,-74.158
0.467,0.326,-0.252,38.330,69.458,-79.651
0.461,0.322,-0.271,34.058,58.533,-78.918
0.448,0.337,-0.295,27.527,48.706,-76.050
0.442,0.361,-0.330,20.142,39.856,-73.242
0.445,0.432,-0.359,15.503,30.396,-72.571
0.480,0.510,-0.385,13.062,18.799,-74.829
0.540,0.548,-0.392,8.118,4.456,-81.787
0.595,0.595,-0.415,1.526,-12.573,-95.825
0.597,0.627,-0.423,-2.258,-31.189,-115.967
0.568,0.685,-0.417,-7.446,-49.255,-138.794
0.496,0.723,-0.398,-15.076,-66.040,-158.569
0.393,0.723,-0.384,-23.804,-81.177,-171.875
0.293,0.672,-0.360,-32.471,-93.811,-179.260
0.193,0.604,-0.317,-44.128,-101.929,-183.289
0.071,0.594,-0.261,-57.556,-103.577,-187.073
-0.071,0.651,-0.208,-70.679,-103.760,-189.026
-0.283,0.884,-0.252,-74.036,-87.891,-188.721
-0.134,1.031,-0.019,-75.134,-74.890,-193.176
-0.161,1.112,0.022,-89.722,-72.083,-195.068
-0.256,1.364,-0.005,-39.063,-73.730,-187.500
-0.340,1.432,-0.052,-19.836,-51.086,-191.895
-0.385,1.505,-0.102,11.414,-22.888,-192.810
-0.377,1.420,-0.147,28.076,4.150,-194.275
-0.368,1.399,-0.219,36.621,25.757,-195.190
-0.346,1.348,-0.286,29.114,35.461,-198.975
-0.309,1.292,-0.349,10.254,35.522,-204.285
-0.279,1.293,-0.394,-11.536,28.687,-207.947
-0.277,1.337,-0.419,-27.283,19.226,-206.238
-0.339,1.380,-0.441,-36.011,14.404,-198.792
-0.390,1.457,-0.436,-37.048,13.123,-186.157
-0.430,1.520,-0.423,-35.217,16.235,-173.462
-0.427,1.573,-0.374,-33.997,16.052,-164.062
-0.450,1.672,-0.349,-26.794,7.935,-153.992
-0.460,1.571,-0.315,-25.085,6.836,-148.926
-0.461,1.533,-0.296,-33.020,5.127,-149.170
-0.456,1.417,-0.295,-52.856,4.944,-154.114
-0.440,1.391,-0.293,-76.538,2.441,-161.194
-0.373,1.436,-0.235,-94.727,-5.493,-166.565
-0.343,1.532,-0.197,-102.783,-13.855,-169.556
-0.372,1.615,-0.170,-102.478,-17.029,-171.082
-0.344,1.736,-0.046,-92.285,-23.254,-169.556
-0.403,1.602,0.001,-85.022,-30.884,-166.748
-0.470,1.546,0.037,-73.730,-38.452,-160.522
-0.529,1.440,0.041,-66.101,-41.138,-154.236
-0.539,1.422,0.050,-54.504,-45.654,-145.264
-0.594,1.371,-0.015,-46.021,-49.988,-137.390
-0.629,1.383,-0.063,-37.903,-56.824,-129.089
-0.646,1.265,-0.089,-30.334,-62.561,-120.178
-0.743,1.140,-0.169,-27.344,-64.941,-111.877
-0.791,1.093,-0.182,-25.696,-70.007,-100.830
-0.846,0.917,-0.180,-29.480,-71.350,-89.844
-0.852,0.880,-0.131,-35.828,-76.843,-77.759
-0.968,0.836,-0.173,-39.368,-73.059,-65.063
-0.997,0.802,-0.128,-42.175,-67.200,-51.697
-0.994,0.821,-0.055,-43.640,-68.848,-36.316
-1.062,0.845,-0.050,-43.091,-62.134,-21.790
-1.037,0.857,0.043,-37.781,-47.363,-7.141
-1.183,0.858,-0.044,-29.785,-52.185,11.230
-1.179,0.966,-0.009,-24.597,-44.495,26.123
-1.156,1.025,0.047,-22.644,-49.561,45.105
-1.258,1.226,0.025,-21.790,-47.058,72.693
-1.249,1.332,0.054,-0.061,-46.753,102.173
-1.231,1.043,0.044,7.263,-42.297,120.911
-0.304,0.932,-0.042,-13.550,-39.917,155.762
-0.116,1.655,-0.184,-11.475,-33.203,170.837
0.625,0.808,-0.138,3.662,-16.479,133.423
0.151,1.462,-0.064,35.583,-7.935,116.394
0.395,1.411,-0.107,112.549,13.306,122.070
0.217,1.015,0.075,145.935,30.579,127.258
-0.058,1.110,-0.061,187.195,38.757,143.799
-0.060,0.433,-0.167,142.578,31.738,151.611
0.012,0.860,-0.206,58.533,25.146,148.621
0.282,1.598,-0.181,32.715,20.691,143.921
0.220,1.574,-0.247,46.204,14.099,148.621
0.273,1.005,-0.257,29.785,11.230,149.414
-0.141,1.547,-0.212,16.663,7.324,137.756
0.215,1.482,-0.032,14.587,6.409,120.422
0.078,1.487,-0.096,10.376,5.432,99.731
-0.163,1.038,0.001,1.221,6.897,96.069
0.201,1.119,-0.178,-9.949,6.287,91.187
0.017,1.085,-0.226,-8.789,9.460,87.463
0.053,1.174,-0.236,-7.629,5.920,82.336
0.072,1.106,-0.317,-16.541,5.432,75.317
0.077,1.671,-0.433,-1.648,6.653,57.739
0.006,1.148,-0.328,15.076,5.127,39.551
0.185,1.097,-0.187,14.282,3.601,25.146
0.018,0.949,-0.131,5.371,5.127,16.357
-0.067,0.841,-0.104,-11.230,9.705,13.794
0.295,1.012,-0.231,-18.433,6.775,6.104
-0.002,0.997,-0.242,-20.752,9.460,5.920
-0.267,1.024,-0.116,-19.287,10.071,8.240
0.213,0.986,-0.195,-19.165,3.845,4.517
0.403,0.940,-0.271,-20.874,4.761,3.052
-0.399,0.980,-0.151,-16.235,7.385,11.230
0.085,0.974,-0.235,-13.672,2.014,5.554
0.100,0.936,-0.212,-16.357,0.488,3.113
-0.295,0.989,-0.158,-14.954,5.371,11.047
0.133,1.008,-0.251,-11.902,1.526,2.563
0.035,0.948,-0.211,-10.620,4.578,4.456
0.151,0.910,-0.244,-10.986,7.874,5.371
-0.083,0.984,-0.230,-12.207,3.906,4.150
-0.013,1.059,-0.287,-0.977,4.761,6.775
0.206,0.855,-0.255,-2.502,7.812,6.348
-0.009,0.958,-0.176,-17.334,6.714,2.136
0.040,0.892,-0.218,-21.729,3.601,0.793
0.135,0.974,-0.253,-16.418,2.869,2.686
-0.262,1.038,-0.193,-9.827,2.319,5.249
0.269,0.846,-0.322,-11.292,1.648,1.221
0.007,1.162,-0.247,10.986,6.226,8.362
-0.259,0.939,-0.186,14.771,5.371,8.972
0.138,0.732,-0.209,-12.695,1.770,1.160
-0.123,0.970,-0.177,-23.621,1.587,0.427
0.062,0.947,-0.258,-19.653,-1.282,0.244
-0.239,0.999,-0.236,-1.526,-0.793,6.226
0.075,0.927,-0.290,-5.249,0.427,2.869
-0.051,0.978,-0.234,-1.038,1.953,4.395
-0.130,0.984,-0.245,3.418,2.930,4.761
0.106,0.862,-0.222,2.869,4.272,4.272
0.037,0.968,-0.279,-7.324,5.859,1.465
-0.093,0.892,-0.248,-3.784,3.601,3.479
0.104,0.946,-0.269,-6.714,2.686,2.136
0.016,0.959,-0.263,-7.629,2.197,2.502
-0.094,1.001,-0.235,-1.709,1.648,4.700
-0.209,0.959,-0.193,-1.465,0.732,4.578
0.166,0.908,-0.280,-7.751,1.831,2.014
0.054,0.963,-0.242,0.793,3.662,5.188
-0.527,1.011,-0.205,11.902,4.944,7.935
0.266,0.752,-0.303,-3.662,4.700,2.075
-0.120,1.073,-0.219,-4.456,4.517,4.639
-0.357,0.938,-0.236,0.916,1.526,4.883
0.108,0.922,-0.330,-8.301,1.953,1.282
-0.121,0.975,-0.201,0.793,5.188,4.700
0.084,1.012,-0.302,9.033,6.409,5.188
-0.063,0.983,-0.275,10.132,6.958,5.493
-0.135,0.996,-0.273,11.780,8.118,5.859
0.018,0.943,-0.302,18.555,9.277,6.531
-0.068,1.034,-0.222,23.499,7.874,8.606
-0.071,0.949,-0.260,16.357,7.507,7.446
-0.008,0.882,-0.247,11.414,9.949,7.385
-0.072,0.997,-0.224,16.479,12.268,9.460
0.101,1.086,-0.279,17.395,11.169,12.512
-0.185,0.892,-0.207,21.912,12.085,17.700
-0.123,0.943,-0.193,17.578,11.047,20.081
-0.043,1.012,-0.184,14.282,10.742,24.414
-0.068,0.950,-0.211,13.123,8.911,29.785
-0.191,1.000,-0.244,7.996,8.362,34.912
-0.016,0.928,-0.244,7.080,9.583,42.358
-0.167,1.003,-0.205,10.010,13.123,49.744
-0.088,1.065,-0.224,15.320,14.771,58.838
-0.043,0.883,-0.191,10.742,10.742,63.232
0.064,1.093,-0.253,2.625,13.245,61.951
-0.242,1.093,-0.251,6.348,13.916,65.979
0.046,1.135,-0.329,3.662,12.085,70.801
-0.174,1.109,-0.244,5.249,19.043,87.219
-0.359,1.090,-0.230,11.841,22.949,109.619
-0.136,1.093,-0.277,-2.197,27.527,125.305
0.275,1.216,-0.274,-17.639,35.461,139.160
-0.509,1.257,-0.186,-16.052,40.833,156.555
-0.395,1.297,-0.291,-23.987,47.791,177.246
-0.022,1.440,-0.327,-34.180,55.908,199.280
-0.682,1.293,-0.222,-24.902,67.566,226.746
-0.290,1.888,-0.549,-22.644,72.021,244.019
-0.560,1.923,-0.595,-4.822,77.148,262.573
-0.238,1.801,-0.645,7.446,81.055,272.888
-0.563,2.047,-0.614,22.827,80.872,275.085
-0.506,2.236,-0.667,30.090,76.355,269.836
-0.166,2.315,-0.675,36.804,67.261,255.188
-0.292,2.395,-0.541,50.354,56.274,250.061
0.056,1.972,-0.376,57.251,45.593,255.493
0.473,1.807,-0.325,70.129,36.560,259.949
0.307,1.465,-0.310,86.670,34.851,272.400
0.024,0.816,-0.178,66.772,53.223,273.071
0.115,2.030,-0.446,42.053,79.651,212.280
0.643,2.010,-0.391,21.729,82.886,142.456
0.824,1.931,-0.502,-29.968,84.595,78.979
0.684,1.661,-0.407,-19.287,84.900,39.185
0.524,1.245,-0.320,-0.488,80.444,8.545
0.439,0.911,-0.258,25.513,72.144,-13.794
0.397,0.622,-0.231,48.950,63.477,-31.860
0.368,0.359,-0.211,60.059,53.711,-48.767
0.303,0.173,-0.172,55.542,45.349,-64.514
0.250,0.157,-0.165,40.344,41.870,-74.890
0.235,0.267,-0.194,26.245,41.016,-78.125
0.249,0.363,-0.222,16.785,40.527,-78.247
0.312,0.443,-0.238,11.963,37.354,-81.116
0.393,0.523,-0.241,9.277,31.128,-89.661
0.450,0.600,-0.253,8.545,23.010,-103.638
0.476,0.672,-0.291,10.437,12.878,-120.728
0.470,0.709,-0.307,14.221,1.221,-137.878
0.429,0.685,-0.311,15.930,-10.315,-152.405
0.371,0.656,-0.325,14.832,-21.606,-163.269
0.325,0.548,-0.333,9.521,-33.020,-170.959
0.144,0.371,-0.428,-7.996,-24.902,-181.946
0.248,0.587,-0.303,-21.057,-41.687,-186.829
0.160,0.519,-0.338,-18.433,-54.138,-188.721
0.073,0.530,-0.330,-32.959,-52.002,-194.397
0.039,0.634,-0.334,-43.396,-46.509,-198.425
0.019,0.732,-0.305,-49.011,-43.518,-199.341
-0.002,0.854,-0.297,-45.959,-41.443,-196.716
-0.039,0.907,-0.275,-49.072,-38.635,-194.702
-0.003,0.960,-0.236,-58.533,-40.527,-192.810
-0.060,1.068,-0.231,-46.265,-48.462,-188.477
-0.057,1.121,-0.272,-40.466,-49.561,-188.354
-0.081,1.219,-0.312,-35.339,-47.058,-190.247
-0.070,1.370,-0.323,-32.532,-43.274,-195.068
-0.124,1.588,-0.327,-26.306,-38.513,-202.209
-0.156,1.737,-0.321,-20.081,-35.095,-211.853
-0.215,1.711,-0.304,-21.851,-30.029,-222.656
-0.289,1.667,-0.302,-23.132,-26.978,-228.760
-0.340,1.599,-0.293,-25.208,-29.419,-228.821
-0.419,1.570,-0.290,-28.503,-34.363,-224.304
-0.497,1.539,-0.273,-31.006,-37.048,-216.614
-0.575,1.488,-0.251,-33.325,-37.598,-206.543
-0.629,1.466,-0.223,-36.682,-33.325,-196.350

-0.504,1.520,-0.352,-32.776,-5.798,-139.893
-0.459,1.536,-0.374,-39.001,-5.798,-139.465
-0.427,1.465,-0.362,-54.321,-8.606,-145.264
-0.399,1.481,-0.308,-66.406,-16.663,-151.978
-0.410,1.468,-0.244,-74.829,-19.653,-156.799
-0.420,1.448,-0.121,-81.360,-22.827,-158.569
-0.479,1.420,-0.020,-83.069,-23.560,-157.349
-0.520,1.351,0.103,-81.848,-20.752,-153.992
-0.555,1.328,0.197,-78.247,-14.160,-151.550
-0.565,1.487,0.237,-75.439,-2.930,-150.513
-0.521,1.568,0.273,-63.232,2.869,-148.010
-0.495,1.613,0.234,-47.180,2.502,-145.203
-0.486,1.613,0.174,-24.597,-4.395,-138.977
-0.502,1.407,0.106,-11.963,-11.230,-133.484
-0.578,1.252,0.020,-1.099,-20.874,-124.512
-0.670,1.033,-0.061,1.038,-26.611,-114.075
-0.731,0.871,-0.089,-3.845,-32.043,-101.440
-0.775,0.781,-0.095,-15.503,-40.710,-87.219
-0.788,0.732,-0.051,-23.682,-55.054,-68.909
-1.171,0.598,-0.402,-30.701,-27.832,-59.143
-0.903,0.836,-0.046,-37.720,-17.273,-45.654
-1.009,0.780,-0.105,-31.067,-12.207,-28.137
-0.957,0.864,0.008,-36.011,-16.968,-14.404
-1.002,0.911,0.042,-40.833,-34.546,3.967
-1.104,1.156,0.069,-34.241,-52.979,34.729
-1.163,1.161,0.069,-14.099,-68.665,64.453
-1.281,1.055,0.014,-2.502,-69.092,85.144
-1.342,0.984,0.033,4.456,-67.810,111.145
-1.727,0.668,-0.132,-14.465,-52.307,158.997
-0.101,0.967,-0.062,1.343,-36.133,179.016
-0.045,0.534,0.047,-18.799,-28.320,141.174
0.260,1.805,-0.216,24.231,-4.883,130.859
0.528,1.620,-0.090,95.581,8.606,128.784
0.479,1.380,-0.121,146.301,12.268,121.094
0.113,0.958,-0.148,161.255,15.076,121.277
0.032,0.526,-0.025,109.680,12.329,129.822
-0.401,1.113,-0.040,59.326,7.629,140.198
0.369,1.183,0.002,29.846,7.751,144.409
0.101,1.439,-0.087,13.733,9.094,140.198
0.001,1.162,-0.042,-4.761,8.972,136.841
0.024,1.485,-0.200,-11.780,5.615,130.676
0.041,1.297,-0.200,-10.925,4.578,121.155
-0.047,1.493,-0.222,-12.146,3.784,103.333
0.141,1.210,-0.157,-3.662,2.869,94.849
0.071,1.260,-0.260,-5.066,3.174,85.266
-0.078,1.105,-0.241,-5.798,8.972,78.918
0.323,1.063,-0.265,-11.963,7.019,70.801
0.040,1.273,-0.343,-4.150,7.629,64.026
0.013,1.221,-0.313,-1.465,11.597,56.396
0.394,1.351,-0.402,18.188,3.357,39.368
-0.021,1.010,-0.250,26.489,2.380,32.715
-0.224,0.975,-0.111,25.024,4.761,31.006
0.266,0.964,-0.110,12.817,2.441,18.921
0.151,0.907,-0.220,-1.160,4.456,10.559
-0.450,0.895,-0.045,-15.930,13.367,12.573
0.427,1.048,-0.238,-16.663,7.141,2.747
-0.181,0.965,-0.196,-14.648,8.972,4.700
-0.108,0.968,-0.104,-23.071,10.010,7.385
0.199,1.014,-0.290,-12.268,3.479,1.465
-0.101,0.975,-0.178,-11.230,4.456,5.859
0.134,0.935,-0.209,-9.949,5.005,6.165
0.138,1.021,-0.226,-7.751,3.113,5.493
-0.095,0.971,-0.233,-2.319,2.319,5.676
0.090,0.933,-0.221,-0.671,1.526,6.409
0.030,0.974,-0.219,-0.610,1.343,6.470
0.000,0.957,-0.214,-0.244,1.221,4.456
0.046,0.940,-0.186,-2.686,-3.967,6.531
0.031,0.935,-0.245,-8.545,0.977,5.615
0.091,0.947,-0.177,-8.728,-0.061,2.319
0.002,0.936,-0.206,3.418,6.104,9.644
-0.125,0.953,-0.163,-8.362,4.517,4.639
0.050,0.836,-0.190,-24.719,2.014,-0.549
-0.048,1.022,-0.197,-21.057,4.578,2.197
-0.004,0.977,-0.212,-14.343,0.610,2.441
-0.114,1.120,-0.178,4.150,1.404,7.812
0.014,0.901,-0.258,2.258,4.272,4.944
-0.022,0.937,-0.213,-2.075,3.601,5.310
-0.166,0.964,-0.237,-8.911,2.258,3.052
0.175,0.894,-0.261,-13.184,1.953,0.977
-0.062,1.018,-0.237,-8.667,1.831,3.967
-0.123,0.908,-0.242,-10.620,0.061,3.174
0.198,0.949,-0.264,-12.939,1.831,0.916
-0.094,1.053,-0.217,-2.991,3.723,5.127
-0.272,0.949,-0.203,2.258,3.967,6.409
0.038,0.956,-0.232,-1.465,3.052,4.333
0.335,0.890,-0.274,-10.803,2.747,0.671
-0.221,1.020,-0.214,-3.906,2.014,5.737
-0.317,0.987,-0.209,5.249,-0.305,7.324
0.436,0.828,-0.331,-5.310,2.625,0.854
-0.338,1.041,-0.134,2.686,4.944,7.751
-0.103,0.936,-0.300,1.709,1.404,4.517
0.201,0.881,-0.264,-0.854,3.967,3.113
-0.171,0.995,-0.134,2.441,3.601,6.042
-0.129,0.906,-0.285,0.610,2.930,4.089
0.166,0.924,-0.249,0.305,3.601,3.784
-0.054,1.000,-0.225,2.258,7.263,4.333
-0.098,0.962,-0.233,5.493,5.249,5.676
0.055,0.878,-0.255,4.700,4.395,5.188
0.082,1.036,-0.220,4.517,5.371,5.188
-0.336,0.953,-0.198,7.141,5.737,6.287
0.258,0.898,-0.260,6.104,2.014,4.883
-0.124,1.108,-0.297,9.338,5.737,6.348
-0.326,0.915,-0.213,16.785,4.272,7.935
0.035,0.956,-0.255,20.569,4.761,8.362
-0.147,1.042,-0.224,19.714,8.728,8.850
0.013,0.885,-0.230,18.616,7.751,8.789
-0.278,1.033,-0.211,20.447,11.047,10.864
0.064,0.852,-0.224,12.939,9.521,10.376
-0.106,1.001,-0.198,14.832,10.193,14.160
-0.179,0.989,-0.185,14.465,10.315,18.799
0.115,0.913,-0.202,10.071,9.094,22.461
-0.088,1.068,-0.193,10.437,11.047,26.855
-0.225,0.974,-0.196,11.841,9.827,32.837
0.174,0.956,-0.255,4.639,10.071,38.574
-0.185,1.010,-0.127,1.099,13.428,47.302
-0.395,1.053,-0.229,0.977,10.315,56.885
-0.017,0.919,-0.255,-2.014,12.939,59.998
0.343,1.084,-0.259,-0.671,18.799,59.875
-0.596,1.086,-0.210,11.414,20.386,62.927
-0.206,1.087,-0.290,3.357,12.634,66.650
-0.021,1.059,-0.199,-2.625,18.066,81.970
-0.518,1.092,-0.224,1.526,23.376,105.408
-0.003,1.211,-0.295,-4.944,26.794,122.314
-0.252,1.074,-0.186,-17.151,38.452,138.000
0.039,1.282,-0.235,-21.790,44.434,156.128
-0.098,1.184,-0.218,-33.691,48.340,174.133
-0.269,1.238,-0.224,-47.913,49.500,193.298
-0.322,1.319,-0.307,-61.584,54.993,210.937
-0.277,1.539,-0.375,-65.002,61.523,231.140
-0.219,1.778,-0.497,-64.270,63.599,250.061
-0.744,1.982,-0.519,-44.189,63.354,267.090
-0.070,2.057,-0.662,-29.175,63.965,270.508
-0.495,2.225,-0.629,-1.709,64.331,269.775
-0.484,2.084,-0.541,5.493,56.396,265.930
-0.318,2.335,-0.593,11.658,51.453,256.714
-0.096,2.299,-0.381,30.212,41.931,257.751
0.354,1.821,-0.284,47.607,34.302,266.418
0.262,1.455,-0.251,57.983,29.785,277.100
0.195,0.780,-0.206,50.659,38.574,292.236
-0.081,1.392,-0.227,1.038,65.735,239.014
0.419,2.378,-0.285,0.916,80.811,158.630
0.874,2.120,-0.311,-27.100,92.102,86.365
0.750,1.912,-0.284,-25.085,99.182,34.973
0.540,1.431,-0.211,-12.268,99.182,-4.517
0.438,1.113,-0.214,13.306,97.961,-30.884
0.403,0.863,-0.235,37.415,95.398,-49.744
0.380,0.694,-0.265,61.157,90.088,-62.744
0.368,0.533,-0.306,76.294,83.008,-71.838
0.385,0.415,-0.336,80.627,75.684,-78.125
0.402,0.361,-0.374,77.881,67.871,-82.153
0.417,0.368,-0.423,72.571,59.631,-83.801
0.437,0.375,-0.459,67.810,50.049,-84.229
0.447,0.382,-0.472,60.791,39.917,-85.571
0.450,0.397,-0.482,53.711,28.625,-88.623
0.452,0.399,-0.479,48.523,15.320,-93.567
0.454,0.393,-0.480,42.358,0.610,-101.074
0.473,0.421,-0.482,35.461,-14.648,-111.267
0.469,0.446,-0.454,27.832,-29.480,-123.474
0.418,0.482,-0.418,20.325,-42.603,-135.376
0.335,0.520,-0.386,12.390,-52.734,-145.447
0.251,0.555,-0.347,0.488,-59.509,-154.297
0.166,0.664,-0.332,-14.893,-61.584,-163.452
0.076,0.830,-0.332,-27.466,-58.777,-173.096
-0.002,0.944,-0.324,-34.668,-52.368,-184.937
0.001,0.877,-0.265,-40.710,-44.800,-199.402
-0.006,0.878,-0.247,-51.392,-34.668,-213.989
-0.040,1.046,-0.241,-56.030,-24.658,-225.159
-0.085,1.126,-0.219,-72.327,-16.418,-236.145
-0.249,1.343,-0.236,-83.191,-10.376,-239.075
-0.023,1.041,-0.098,-86.304,-13.489,-243.286
-0.023,1.953,-0.190,-23.132,-53.040,-219.604
-0.314,1.629,-0.318,45.715,-51.636,-193.420
-0.435,1.435,-0.269,40.466,-21.912,-186.584
-0.430,1.366,-0.311,24.048,4.150,-186.890
-0.372,1.485,-0.253,17.273,11.536,-185.730
-0.393,1.466,-0.241,1.648,9.155,-190.063
-0.419,1.476,-0.243,-18.127,7.812,-196.228
-0.503,1.562,-0.309,-27.100,12.451,-196.960
-0.481,1.625,-0.221,-28.442,6.409,-188.904
-0.583,1.570,-0.269,-21.484,10.071,-176.758
-0.544,1.542,-0.268,-32.104,9.521,-168.030
-0.532,1.562,-0.339,-37.170,7.690,-159.302
-0.499,1.476,-0.390,-51.636,9.216,-155.823
-0.409,1.481,-0.357,-61.646,-0.427,-150.391
-0.408,1.441,-0.353,-73.792,-13.000,-146.118
-0.445,1.466,-0.292,-85.938,-21.790,-144.348
-0.494,1.391,-0.187,-102.173,-25.574,-145.691
-0.559,1.311,-0.039,-119.019,-25.269,-146.667
-0.598,1.572,0.138,-121.582,-24.414,-143.616
-0.659,1.390,0.179,-141.846,-21.790,-147.888
-0.635,1.823,0.224,-132.812,-22.583,-146.118
-0.599,2.034,0.245,-116.821,-28.687,-147.400
-0.652,2.068,0.220,-88.440,-39.551,-149.719
-0.898,1.988,0.114,-42.358,-49.194,-144.165
-1.038,1.465,0.142,-14.587,-56.641,-134.949
-1.242,0.919,0.110,-12.695,-60.974,-123.169
-1.468,0.688,0.000,-25.574,-57.190,-108.704
-1.549,0.517,0.010,-49.561,-55.847,-92.773
-1.543,0.495,0.059,-68.542,-65.369,-72.266
-1.537,0.552,0.115,-79.407,-58.289,-53.589
-1.663,0.576,-0.026,-88.135,-14.954,-42.236
-1.561,0.824,0.091,-87.036,-3.296,-16.357
-1.564,1.246,0.125,-71.594,1.953,24.597
-1.424,1.372,0.238,-36.560,-10.193,68.115
-1.380,1.312,0.214,-3.113,-27.527,104.919
-1.380,1.260,0.106,15.076,-32.532,145.325
-0.246,1.384,-0.032,5.432,-27.100,186.523
-0.103,0.803,-0.105,14.038,-29.968,169.556
0.430,1.545,-0.261,23.987,-27.527,135.986
0.325,1.764,-0.345,98.877,2.930,122.070
0.390,1.410,-0.178,155.273,12.939,111.023
0.465,1.025,-0.075,167.664,14.709,115.967
-0.337,0.996,-0.176,185.120,20.020,129.395
-0.088,0.444,-0.264,147.949,23.926,142.395
0.257,0.668,-0.300,55.786,11.597,144.653
-0.142,1.501,-0.255,48.096,11.597,151.001
0.324,1.248,-0.037,27.710,6.897,149.475
-0.189,1.491,0.003,24.597,1.221,145.142
-0.100,1.281,0.046,5.005,5.493,131.897
0.010,1.427,-0.048,-1.465,11.353,113.892
0.274,1.228,-0.121,-13.123,7.935,100.403
0.099,1.300,-0.275,-15.808,4.517,88.928
0.067,1.234,-0.298,-16.296,2.380,81.787
0.118,1.438,-0.357,-11.475,1.099,72.021
0.157,1.350,-0.308,5.493,1.404,56.824
0.096,1.207,-0.427,15.686,-2.258,35.156
-0.249,0.941,-0.235,15.625,3.540,29.907
0.163,1.037,-0.200,13.184,3.357,23.560
-0.096,0.987,-0.157,8.789,5.615,14.160
0.111,0.874,-0.141,-8.545,10.559,6.653
-0.200,1.001,-0.088,-11.108,9.460,6.958
0.184,0.996,-0.254,-13.794,6.165,4.456
-0.049,0.960,-0.226,-10.193,7.080,4.456
-0.035,1.001,-0.160,-15.930,8.484,2.747
0.273,0.931,-0.256,-15.015,6.897,0.854
-0.033,1.014,-0.208,-14.404,10.620,2.441
-0.019,0.962,-0.188,-10.193,8.667,3.357
0.291,0.998,-0.273,-6.897,4.822,1.343

-0.021,1.014,-0.285,-10.559,8.057,2.747
0.184,0.952,-0.233,-6.165,10.254,2.747
-0.025,1.036,-0.123,-2.869,7.996,5.249
0.023,0.956,-0.221,-2.197,6.470,4.028
0.080,0.952,-0.224,-2.991,6.287,3.357
0.027,1.015,-0.063,-4.883,1.587,5.798
0.096,0.935,-0.326,-9.277,1.343,1.282
0.028,0.932,-0.200,-6.226,4.089,5.859
-0.155,1.088,-0.155,5.859,3.418,8.362
0.049,0.834,-0.221,-6.104,2.869,1.892
-0.022,0.931,-0.113,-10.071,2.502,5.127
-0.014,1.002,-0.196,-11.230,-1.282,4.822
-0.067,0.965,-0.195,-9.277,-2.930,6.104
0.027,0.941,-0.247,-8.362,-4.089,4.456
-0.015,0.919,-0.177,-3.357,-0.916,7.019
-0.033,0.955,-0.185,2.380,1.160,8.484
0.211,0.853,-0.248,-15.625,2.014,2.014
-0.060,0.943,-0.169,-23.743,3.174,2.563
-0.055,0.970,-0.213,-25.208,2.686,1.709
0.185,1.016,-0.313,-16.357,4.395,1.648
-0.057,0.970,-0.196,-6.042,3.784,6.775
-0.321,1.001,-0.194,-5.005,4.456,5.981
0.165,0.915,-0.228,-9.521,2.136,2.380
0.275,0.918,-0.287,-11.536,5.127,2.441
-0.482,1.081,-0.099,-1.160,4.028,9.460
0.039,0.794,-0.253,-11.719,0.183,2.625
-0.069,0.981,-0.317,-19.104,2.014,0.549
-0.319,1.034,-0.102,-2.808,0.793,8.850
0.017,0.949,-0.362,-5.981,2.136,2.563
-0.062,0.905,-0.195,-9.521,3.418,2.869
0.129,0.985,-0.208,-2.014,3.784,5.493
-0.021,0.996,-0.246,2.625,3.174,6.409
-0.162,0.948,-0.282,-0.977,3.845,4.333
0.098,0.902,-0.279,0.488,5.005,4.700
-0.068,0.990,-0.231,2.014,4.578,5.920
-0.026,0.943,-0.277,-2.747,2.991,3.235
-0.058,0.928,-0.211,-1.038,2.563,4.822
0.088,0.938,-0.222,-0.427,2.197,4.639
0.014,1.059,-0.321,-0.183,4.761,3.967
-0.181,0.905,-0.240,9.644,8.423,7.263
-0.056,0.993,-0.217,13.916,6.287,7.568
-0.044,0.949,-0.249,10.986,6.287,7.507
0.008,0.908,-0.227,10.986,7.507,7.324
-0.204,1.082,-0.269,16.052,6.226,9.155
0.009,0.858,-0.271,14.038,7.019,8.484
-0.043,0.952,-0.246,13.184,11.230,9.094
-0.159,0.980,-0.224,13.367,15.991,9.460
0.111,0.867,-0.263,13.062,16.602,9.583
0.010,1.110,-0.221,20.142,18.494,14.343
-0.176,0.925,-0.197,22.034,15.137,19.653
0.169,0.931,-0.283,9.949,15.259,20.752
-0.091,1.044,-0.199,11.536,17.944,28.137
-0.374,1.018,-0.156,16.235,14.832,36.560
-0.001,1.021,-0.226,14.160,14.221,45.227
0.433,0.991,-0.237,7.629,13.184,52.856
-0.581,1.084,-0.126,10.864,14.832,62.927
-0.206,0.943,-0.214,9.705,10.315,71.472
0.205,1.025,-0.237,5.310,14.465,74.463
-0.614,1.031,-0.153,8.850,18.616,83.679
-0.026,1.250,-0.321,7.507,13.000,89.844
-0.217,1.128,-0.198,0.183,20.996,100.342
0.057,1.173,-0.319,0.549,26.123,118.835
-0.179,1.137,-0.251,-1.526,34.302,138.123
-0.202,1.137,-0.231,-10.559,44.189,157.166
-0.190,1.189,-0.235,-18.250,51.819,172.119
-0.208,1.307,-0.263,-22.217,58.105,187.744
-0.089,1.307,-0.306,-28.442,59.326,207.092
-0.579,1.479,-0.277,-31.250,64.087,228.027
-0.002,1.655,-0.511,-34.668,68.176,246.704
-0.514,1.995,-0.533,-16.479,73.303,265.869
-0.782,1.807,-0.472,3.235,78.918,283.691
-0.397,2.114,-0.607,12.512,78.979,287.109
-0.582,2.429,-0.603,32.104,79.346,287.903
-0.223,2.539,-0.577,53.772,68.665,277.588
-0.366,2.664,-0.541,77.698,52.673,266.968
0.169,2.188,-0.493,88.562,32.654,267.090
0.376,1.961,-0.406,101.501,15.198,269.470
0.471,1.461,-0.316,117.554,6.226,280.945
0.388,0.740,-0.181,107.666,12.695,304.382
-0.208,0.568,-0.199,41.321,45.044,272.522
0.189,2.177,-0.233,7.080,71.411,197.021
0.645,2.028,-0.209,-39.001,83.069,125.305
0.646,2.044,-0.350,-48.035,91.858,65.002
0.645,1.712,-0.355,-24.231,92.041,13.855
0.661,1.268,-0.322,5.981,88.379,-28.992
0.626,0.923,-0.295,41.138,81.116,-64.331
0.499,0.603,-0.306,67.627,68.787,-92.590
0.451,0.475,-0.342,79.102,54.382,-110.474
0.457,0.402,-0.368,76.721,40.039,-117.371
0.434,0.333,-0.391,65.796,25.208,-118.774
0.400,0.250,-0.423,51.697,11.475,-118.469
0.387,0.240,-0.453,36.926,0.000,-119.080
0.409,0.274,-0.462,23.376,-10.254,-121.887
0.442,0.333,-0.438,11.963,-21.179,-126.770
0.455,0.409,-0.430,3.662,-32.654,-134.155
0.447,0.484,-0.439,-1.038,-44.373,-143.677
0.430,0.537,-0.434,-5.005,-56.641,-155.334
0.393,0.578,-0.419,-10.010,-68.665,-167.419
0.327,0.623,-0.406,-15.747,-78.857,-178.467
0.245,0.627,-0.372,-21.667,-85.632,-188.232
0.130,0.591,-0.332,-31.433,-88.135,-196.838
0.000,0.607,-0.293,-41.809,-85.388,-202.759
-0.119,0.683,-0.250,-51.514,-77.637,-205.200
-0.201,0.836,-0.209,-54.932,-67.627,-203.308
-0.241,1.071,-0.183,-43.518,-57.861,-199.341
-0.276,1.062,-0.169,-55.786,-40.039,-206.665
-0.171,1.419,-0.173,-61.829,-29.175,-213.928
-0.173,1.334,-0.199,-34.851,-32.227,-218.933
-0.080,1.225,-0.203,-25.696,-20.447,-225.769
-0.256,0.857,-0.280,-32.349,5.371,-239.502
-0.112,1.648,-0.188,7.324,-25.330,-224.670
-0.423,1.447,-0.406,87.952,-30.090,-189.575
-0.579,0.933,-0.414,59.631,4.333,-181.702
-0.449,0.918,-0.385,15.686,29.175,-178.955
-0.326,1.183,-0.427,-11.597,32.104,-179.199
-0.191,1.359,-0.380,-29.297,14.709,-185.547
-0.298,1.571,-0.429,-37.781,2.930,-193.176
-0.268,1.515,-0.345,-45.288,-2.136,-196.472
-0.391,1.697,-0.408,-26.001,-1.587,-187.012
-0.419,1.590,-0.450,-25.208,-0.916,-179.871
-0.383,1.612,-0.491,-25.818,-6.470,-173.096
-0.336,1.565,-0.522,-33.875,-15.442,-171.875
-0.305,1.559,-0.529,-48.279,-26.978,-175.903
-0.326,1.519,-0.484,-63.477,-37.231,-180.481
-0.390,1.514,-0.413,-72.327,-47.424,-180.847
-0.468,1.432,-0.295,-82.092,-54.077,-177.917
-0.564,1.410,-0.139,-93.628,-52.673,-174.438
-0.665,1.394,0.054,-98.633,-48.584,-169.373
-0.707,1.375,0.232,-110.291,-39.856,-171.204
-0.720,1.803,0.353,-110.718,-29.602,-173.157
-0.750,2.018,0.378,-96.191,-16.174,-175.415
-0.699,2.108,0.419,-70.801,-11.536,-174.561
-0.779,2.020,0.338,-32.471,-9.216,-166.077
-0.925,1.772,0.209,-5.859,-10.620,-153.931
-1.053,1.316,0.126,5.981,-15.198,-138.062
-1.219,0.973,0.026,1.221,-20.447,-118.896
-1.376,0.723,-0.028,-11.963,-21.301,-94.666
-1.436,0.523,-0.019,-32.776,-19.714,-69.275
-1.391,0.552,0.049,-49.744,-23.376,-42.236
-1.296,0.663,0.182,-59.875,-32.166,-14.709
-1.490,0.938,0.028,-58.167,-7.019,8.423
-1.280,1.286,0.283,-41.138,-7.385,35.706
-1.386,1.437,0.223,-14.771,-8.850,68.237
-1.414,1.377,0.276,-6.592,-18.188,108.643
-1.571,1.508,0.219,-14.221,-24.780,170.959
0.146,0.430,0.178,2.319,-31.799,177.002
0.034,1.092,0.006,-30.334,-35.950,140.259
0.330,1.746,-0.196,42.114,-19.226,139.404
0.658,1.277,-0.102,91.736,-0.488,134.460
0.656,1.256,-0.177,132.141,1.709,132.080
-0.348,1.292,-0.313,170.837,14.343,130.615
0.246,0.641,-0.125,146.912,16.663,132.507
-0.344,0.586,-0.151,59.326,13.245,128.601
-0.004,1.178,-0.150,39.795,16.663,127.563
0.390,1.507,-0.149,38.208,16.968,122.803
0.134,1.472,-0.148,64.331,10.742,127.197
0.005,1.051,-0.155,38.452,6.165,126.526
0.029,1.185,-0.182,21.423,1.282,120.728
0.290,1.252,-0.176,4.944,-2.136,105.530
0.078,1.394,-0.117,2.808,-1.038,93.323
0.089,1.100,-0.083,-1.282,2.991,88.684
-0.031,1.150,-0.167,-3.723,6.104,87.341
0.262,0.844,-0.073,-12.329,9.644,87.097
0.192,1.351,-0.259,-10.254,5.188,78.003
-0.180,1.021,-0.167,-0.671,0.366,79.773
0.158,0.985,-0.259,-7.507,2.319,74.585
0.013,1.211,-0.235,-4.150,1.770,69.824
0.130,1.338,-0.243,-1.831,-0.061,62.988
-0.038,1.364,-0.277,20.020,-0.488,50.354
0.135,1.170,-0.274,23.071,-4.150,35.034
0.004,1.023,-0.109,20.203,-1.343,27.283
0.014,0.930,-0.100,-1.892,6.287,16.479
0.265,0.905,-0.226,-12.817,6.409,9.155
-0.061,0.971,-0.182,-16.785,10.986,9.583
0.142,1.009,-0.215,-14.954,11.963,5.981
0.162,0.999,-0.250,-12.268,10.742,3.052
-0.012,0.973,-0.162,-11.963,10.315,6.897
-0.154,1.025,-0.139,-5.188,8.606,6.104
0.277,0.942,-0.244,-5.920,8.118,0.732
0.063,1.015,-0.130,-2.319,3.357,7.019
-0.394,1.012,-0.113,-0.732,6.287,10.498
0.481,0.919,-0.223,-6.531,0.977,-0.244
-0.240,0.993,-0.136,-7.385,2.747,7.385
-0.095,0.928,-0.211,-10.620,1.282,7.629
0.225,0.932,-0.261,-2.686,-3.174,3.845
-0.135,0.984,-0.135,5.371,1.892,11.475
0.020,0.847,-0.173,-10.803,1.099,5.554
0.199,0.927,-0.203,-19.836,0.854,2.747
-0.112,1.028,-0.205,-16.296,3.052,2.930
-0.019,0.957,-0.214,-16.235,2.258,2.991
0.081,0.904,-0.232,-10.986,2.930,3.967
0.028,1.071,-0.207,3.113,3.906,6.836
-0.148,0.906,-0.166,-0.732,4.944,7.324
0.177,0.848,-0.196,-16.602,3.113,3.662
0.016,0.940,-0.213,-34.485,-1.038,-1.282
-0.152,0.999,-0.218,-19.592,-2.441,4.639
-0.046,1.034,-0.209,-4.822,-2.075,7.812
-0.056,0.877,-0.221,-13.733,-1.770,4.211
0.048,0.984,-0.189,-13.062,0.305,4.150
-0.124,1.037,-0.257,-4.761,4.211,5.371
0.028,0.914,-0.193,-4.333,3.174,5.554
-0.065,0.944,-0.253,-12.817,4.517,2.563
0.007,0.923,-0.194,-12.939,2.136,3.479
-0.027,1.048,-0.246,-5.310,4.028,5.005
0.175,0.919,-0.283,-7.385,3.418,3.540
-0.071,0.993,-0.201,-2.441,4.211,6.226
0.011,0.936,-0.275,-3.723,3.174,3.967
0.142,0.937,-0.255,-5.249,3.540,3.113
-0.106,0.987,-0.187,2.014,4.883,5.859
-0.268,0.999,-0.192,5.737,3.723,6.226
0.187,0.817,-0.271,-4.089,4.028,2.075
0.086,1.016,-0.245,0.000,5.676,4.700
-0.563,1.015,-0.172,12.268,5.981,8.484
0.324,0.800,-0.342,-2.075,4.761,2.136
-0.189,1.050,-0.180,-3.723,8.545,3.967
-0.317,0.961,-0.191,5.554,2.991,5.615
0.210,0.949,-0.363,4.761,6.409,4.150
-0.207,0.946,-0.108,10.986,10.132,7.263
-0.012,0.979,-0.319,16.113,11.658,7.629
0.103,0.911,-0.250,12.329,13.367,7.263
-0.083,1.004,-0.203,11.902,13.916,8.667
-0.125,0.959,-0.247,7.690,14.099,8.118
0.021,0.893,-0.204,8.118,10.742,10.620
0.150,0.989,-0.224,3.845,12.146,11.536
-0.438,0.962,-0.149,1.221,17.517,13.672
0.326,0.935,-0.312,-0.061,17.151,15.869
-0.073,1.069,-0.189,4.883,18.921,21.973
-0.450,1.078,-0.181,11.353,16.663,29.175
0.125,0.836,-0.289,0.488,12.634,32.593
-0.213,1.098,-0.129,4.150,15.381,42.908
-0.038,1.021,-0.292,3.784,11.536,50.354
-0.320,0.998,-0.217,7.385,16.296,58.594
0.001,1.001,-0.241,8.179,16.174,67.139
-0.133,0.963,-0.228,5.432,17.517,73.975
-0.158,1.163,-0.246,5.554,18.616,83.557
0.160,1.101,-0.337,-3.174,19.104,91.064
-0.259,1.203,-0.259,-2.136,23.621,106.567
-0.068,1.138,-0.284,-2.930,28.381,126.770

-0.444,2.279,-0.680,37.231,74.219,290.039
-0.190,2.209,-0.739,45.532,63.904,280.029
-0.366,2.513,-0.797,47.363,50.110,264.465
-0.182,2.354,-0.565,59.326,35.156,260.193
0.327,2.016,-0.432,72.327,24.231,263.184
0.590,1.634,-0.330,88.562,13.123,269.897
0.236,1.049,-0.248,94.299,21.179,286.194
-0.128,0.696,-0.263,30.762,57.983,245.422
0.422,2.416,-0.394,4.272,81.177,164.368
0.874,1.943,-0.270,-44.434,89.783,92.529
0.620,2.006,-0.348,-45.410,99.731,36.987
0.522,1.557,-0.302,-18.799,103.088,-5.432
0.492,1.154,-0.273,3.906,101.501,-43.396
0.469,0.877,-0.284,28.076,99.121,-75.806
0.417,0.657,-0.288,50.781,93.262,-105.103
0.402,0.519,-0.294,65.979,84.534,-126.892
0.416,0.415,-0.299,70.557,74.097,-136.597
0.416,0.370,-0.338,68.665,63.293,-135.803
0.418,0.315,-0.383,65.369,52.429,-129.578
0.419,0.259,-0.387,58.899,40.771,-124.939
0.431,0.261,-0.404,50.659,28.503,-124.878
0.457,0.308,-0.419,47.058,16.785,-127.869
0.490,0.314,-0.438,43.579,4.456,-133.667
0.517,0.338,-0.466,35.156,-8.850,-141.418
0.527,0.384,-0.492,21.790,-24.353,-149.536
0.501,0.436,-0.501,8.301,-40.527,-155.579
0.462,0.476,-0.495,-2.380,-55.908,-160.400
0.427,0.490,-0.484,-14.343,-69.519,-165.710
0.365,0.515,-0.463,-28.931,-80.444,-171.753
0.278,0.563,-0.418,-43.457,-87.280,-177.490
0.170,0.621,-0.362,-57.556,-89.783,-182.495
0.081,0.728,-0.308,-68.298,-87.585,-186.890
0.098,0.875,-0.212,-73.975,-89.539,-190.186
-0.194,1.049,-0.397,-65.186,-68.420,-194.885
-0.064,0.581,-0.205,-95.825,-61.890,-215.027
0.032,1.844,-0.136,-54.199,-85.693,-204.285
-0.199,1.151,-0.225,-2.136,-90.515,-193.848
-0.321,1.194,-0.245,9.766,-58.044,-190.002
-0.339,1.134,-0.260,13.000,-25.574,-185.547
-0.308,1.385,-0.384,18.311,2.380,-181.519
-0.169,1.410,-0.357,11.719,15.930,-187.073
-0.160,1.485,-0.359,0.977,19.958,-197.571
-0.169,1.446,-0.339,-12.146,20.630,-205.933
-0.212,1.473,-0.330,-17.151,14.893,-205.627
-0.279,1.469,-0.379,-21.545,13.428,-200.684
-0.248,1.545,-0.439,-21.423,13.245,-193.542
-0.220,1.565,-0.534,-24.475,15.625,-188.965
-0.152,1.467,-0.547,-37.476,14.465,-187.012
-0.196,1.510,-0.600,-46.814,11.353,-179.321
-0.260,1.314,-0.556,-66.345,7.935,-169.739
-0.355,1.248,-0.543,-85.388,4.517,-155.334
-0.425,1.252,-0.560,-111.328,0.793,-141.907
-0.438,1.491,-0.551,-139.221,-2.747,-138.062
-0.470,1.720,-0.500,-158.325,-4.639,-143.555
-0.483,1.880,-0.325,-170.227,-7.874,-155.273
-0.580,2.135,-0.131,-173.523,-7.080,-165.466
-0.685,2.319,0.079,-159.363,-0.427,-171.814
-0.813,2.492,0.199,-126.831,-2.197,-171.936
-0.835,2.374,0.319,-82.886,-7.751,-166.870
-1.001,2.047,0.252,-46.692,-12.146,-161.072
-1.151,1.735,0.213,-19.714,-17.944,-150.879
-1.352,1.297,0.180,-3.906,-20.813,-135.376
-1.559,0.871,0.165,-3.662,-23.621,-115.051
-1.708,0.610,0.172,-13.550,-27.100,-90.088
-1.731,0.479,0.232,-26.245,-29.724,-62.622
-1.726,0.455,0.222,-39.490,-39.001,-33.936
-1.657,0.646,0.204,-43.701,-51.086,-5.737
-1.500,0.842,0.215,-38.696,-44.373,13.855
-1.336,1.176,0.188,-15.320,-37.598,32.898
-1.132,1.245,0.144,10.925,-35.767,49.377
-1.070,1.326,0.108,17.395,-38.452,73.914
-1.257,1.740,0.068,44.067,-46.936,120.117
0.085,0.718,-0.472,16.052,-41.931,183.167
0.660,0.998,-0.281,42.908,-49.377,190.430
0.489,0.976,-0.424,49.194,-51.697,147.156
0.489,1.385,-0.428,113.953,-28.015,136.902
0.471,1.236,-0.176,187.195,-33.325,143.921
0.083,0.696,-0.308,219.849,-13.245,153.259
-0.028,0.578,-0.203,201.904,-16.235,168.030
0.097,0.493,-0.096,107.178,-22.522,161.804
-0.083,1.737,0.113,66.101,-18.860,152.466
-0.160,1.969,0.349,87.708,-0.488,149.780
0.163,1.294,0.471,73.853,-5.737,151.123
-0.104,1.100,0.310,43.152,-8.850,148.193
-0.163,1.293,0.125,30.090,-17.456,144.958
0.339,1.350,-0.146,10.986,-24.719,123.291
0.046,1.574,-0.308,6.897,-16.846,97.839
-0.361,0.855,-0.084,-0.061,-5.981,98.633
0.518,1.234,-0.156,-14.160,-4.517,86.609
-0.396,1.190,-0.193,3.052,7.935,84.900
0.017,0.893,-0.136,-17.029,11.841,79.163
0.185,1.654,-0.396,-2.625,7.263,61.523
0.158,1.231,-0.235,8.057,5.188,43.518
0.020,1.108,-0.129,5.066,3.357,24.536
-0.030,0.994,-0.144,-5.737,3.113,14.160
0.163,0.906,-0.174,-14.771,6.958,10.864
0.016,1.071,-0.136,-10.925,9.094,10.193
0.157,0.950,-0.154,-14.404,7.996,5.798
-0.151,1.026,-0.120,-13.794,7.202,6.714
0.346,0.983,-0.144,-16.907,5.676,3.540
0.003,1.063,-0.203,-9.399,4.700,2.869
-0.190,0.932,-0.201,-10.620,7.690,6.653
0.150,1.004,-0.176,-8.667,5.310,3.357
-0.075,1.006,-0.147,-10.864,6.836,3.784
0.118,0.930,-0.171,-11.353,5.859,4.822
-0.167,1.001,-0.159,-8.911,5.310,6.470
0.147,0.899,-0.215,-11.963,5.249,3.723
-0.033,0.990,-0.151,-8.301,4.456,4.639
-0.053,0.921,-0.198,-8.240,2.502,4.395
0.155,0.942,-0.225,-6.470,-1.343,2.991
0.026,0.981,-0.229,-4.639,3.174,4.395
-0.074,0.885,-0.158,-5.615,4.211,6.042
0.188,0.959,-0.192,-8.362,3.540,2.686
-0.011,0.929,-0.193,-9.216,8.301,4.150
-0.124,0.980,-0.149,-8.179,6.653,5.798
-0.067,0.968,-0.154,-8.728,2.930,4.150
0.310,0.925,-0.220,-13.062,2.930,1.343
-0.139,0.956,-0.185,-7.507,2.441,7.141
-0.367,0.994,-0.138,-3.296,0.122,8.484
0.495,0.893,-0.208,-12.146,-3.235,1.587
-0.285,0.952,-0.142,-5.798,-0.427,8.606
-0.146,1.022,-0.239,2.014,-1.770,7.996
0.230,0.860,-0.240,-6.836,-2.258,3.784
-0.203,0.978,-0.155,-10.437,0.488,5.432
-0.034,0.924,-0.255,-10.803,1.648,3.052
0.128,0.983,-0.195,-8.606,3.601,4.395
-0.087,1.004,-0.217,-8.118,5.005,3.479
-0.036,1.022,-0.228,2.991,6.897,6.836
0.034,0.902,-0.214,1.587,9.644,6.470
0.032,0.995,-0.206,-7.385,8.545,3.235
-0.198,0.881,-0.181,-9.888,8.728,3.174
0.206,0.962,-0.185,-5.310,4.883,3.723
-0.028,1.062,-0.252,-1.404,3.967,5.432
-0.195,0.865,-0.202,-1.648,1.831,5.615
-0.007,0.996,-0.198,-0.183,-1.648,5.798
-0.103,1.035,-0.202,1.953,-0.671,6.714
0.022,0.870,-0.200,0.732,1.221,5.432
-0.196,0.997,-0.253,3.723,4.272,6.287
0.025,0.900,-0.215,2.563,5.005,5.127
-0.069,1.032,-0.219,8.179,5.676,7.446
-0.059,0.890,-0.209,5.920,8.057,6.409
0.001,0.944,-0.197,2.258,10.193,5.127
0.120,0.924,-0.273,-3.174,13.367,2.808
-0.117,1.000,-0.167,6.287,14.343,5.859
0.035,0.946,-0.267,5.066,14.954,4.517
0.086,1.002,-0.196,13.855,13.611,8.911
-0.183,1.017,-0.183,20.447,14.099,12.817
-0.206,0.939,-0.159,19.348,8.911,15.564
0.304,0.932,-0.243,10.376,10.498,15.869
-0.169,1.022,-0.194,12.451,12.085,20.325
-0.555,0.966,-0.118,13.306,7.690,24.841
0.608,0.875,-0.256,0.305,2.197,25.208
-0.475,1.063,-0.119,7.874,10.010,31.128
-0.247,0.994,-0.221,10.559,4.883,34.241
0.289,0.991,-0.201,6.348,5.310,39.612
-0.223,0.896,-0.132,2.686,10.193,47.485
-0.338,1.169,-0.208,-0.793,7.507,53.345
0.022,0.948,-0.209,-0.916,7.507,60.242
0.108,0.997,-0.249,0.488,13.245,67.749
-0.251,1.090,-0.189,2.258,16.724,73.669
-0.168,1.060,-0.234,1.648,18.188,80.811
-0.027,1.146,-0.252,-5.127,23.193,87.708
-0.297,1.152,-0.183,-10.498,27.771,104.370
-0.045,1.101,-0.258,-23.315,32.837,125.305
-0.311,1.090,-0.229,-20.996,44.250,148.682
-0.156,1.220,-0.272,-18.494,48.401,166.016
-0.288,1.164,-0.214,-25.696,53.650,180.176
-0.238,1.274,-0.259,-34.607,61.401,196.045
-0.530,1.495,-0.270,-37.231,66.284,218.262
-0.208,1.784,-0.420,-43.213,70.313,241.150
-0.463,2.002,-0.468,-32.043,73.120,266.174
-0.536,2.030,-0.521,-7.812,76.843,283.142
-0.238,2.077,-0.597,13.367,77.637,288.330
-0.482,2.351,-0.602,43.274,75.378,288.696
-0.398,2.307,-0.574,70.068,67.505,286.194
-0.136,2.557,-0.774,80.383,54.749,268.921
-0.183,2.443,-0.670,100.525,36.743,265.320
-0.116,1.875,-0.528,106.567,23.499,272.766
0.520,1.538,-0.418,104.797,15.076,282.288
0.605,1.128,-0.338,95.093,16.846,289.734
-0.289,0.427,-0.038,63.293,52.551,288.391
0.015,2.024,-0.242,24.963,91.309,230.530
0.328,2.205,-0.020,2.747,108.215,166.504
0.328,2.250,-0.279,-23.743,120.605,90.820
0.459,1.614,-0.318,-6.775,127.808,31.677
0.634,1.197,-0.315,13.916,130.066,-20.325
0.635,0.682,-0.307,37.476,128.418,-73.242
0.606,0.349,-0.317,43.640,123.779,-116.882
0.536,0.324,-0.334,34.424,115.967,-138.916
0.521,0.320,-0.339,17.151,103.394,-142.212
0.468,0.345,-0.361,2.930,86.426,-136.536
0.414,0.370,-0.349,2.991,68.787,-130.005
0.495,0.261,-0.267,3.906,51.392,-126.953
0.610,0.150,-0.254,-16.235,30.029,-125.488
0.601,0.596,-0.418,-22.461,8.118,-125.671
0.611,0.688,-0.408,-6.348,-13.611,-127.319
0.583,0.619,-0.333,-0.488,-32.959,-138.611
0.554,0.643,-0.328,1.709,-51.086,-154.846
0.495,0.609,-0.347,-1.648,-67.627,-171.021
0.402,0.550,-0.347,-14.954,-78.247,-185.608
0.300,0.549,-0.313,-30.884,-84.045,-196.411
0.193,0.590,-0.266,-41.565,-86.609,-201.904
0.098,0.629,-0.218,-49.805,-85.205,-204.895
0.016,0.658,-0.167,-60.425,-79.651,-208.862
-0.050,0.761,-0.135,-67.627,-71.411,-212.952
-0.099,0.934,-0.112,-63.110,-62.500,-215.149
-0.177,0.929,-0.091,-73.425,-50.903,-222.229
-0.001,0.986,0.046,-94.971,-53.345,-227.295
-0.259,1.126,-0.176,-77.698,-27.466,-227.356
-0.096,1.244,-0.122,-73.364,-29.724,-225.769
-0.111,1.490,-0.188,-1.343,-38.025,-201.294
-0.244,1.350,-0.278,32.104,-25.208,-187.561
-0.274,1.356,-0.317,35.767,-7.629,-183.228
-0.177,1.429,-0.289,20.203,-0.549,-187.134
-0.221,1.569,-0.279,11.047,-0.244,-194.153
-0.250,1.476,-0.261,-7.812,5.005,-205.078
-0.296,1.391,-0.273,-32.898,13.123,-212.769
-0.340,1.445,-0.268,-52.917,16.846,-213.501
-0.401,1.535,-0.270,-63.293,20.691,-210.693
-0.400,1.638,-0.237,-71.472,28.992,-208.801
-0.439,1.684,-0.254,-79.224,37.720,-209.595
-0.487,1.931,-0.285,-80.078,39.612,-207.886
-0.514,1.943,-0.273,-79.041,46.509,-207.214
-0.542,1.925,-0.238,-86.609,51.758,-209.045
-0.566,1.879,-0.216,-86.914,53.284,-205.261
-0.562,1.702,-0.224,-86.853,50.537,-196.045
-0.487,1.510,-0.210,-90.210,41.870,-182.495
-0.396,1.392,-0.189,-96.863,26.978,-167.603
-0.328,1.319,-0.109,-106.018,8.118,-152.588
