aX,aY,aZ,gX,gY,gZ
-1.663,0.607,-0.309,-10.620,-10.925,16.846
-1.663,0.499,-0.181,-13.428,-0.916,30.884
-1.645,0.520,-0.112,-21.484,4.639,42.908
-1.610,0.558,-0.082,-31.128,9.460,53.223
-1.633,0.603,-0.082,-49.011,13.123,59.570
-1.811,1.385,0.089,-21.118,28.198,63.660
-1.748,1.306,0.316,21.545,46.326,67.322
-1.980,2.454,0.029,23.071,53.284,18.250
0.272,3.051,-0.844,266.602,41.016,36.499
-0.194,-0.285,0.052,235.291,2.319,23.987
-0.139,0.915,-0.121,180.237,-38.818,0.549
-0.028,0.834,0.043,161.316,-41.443,5.127
-0.391,0.020,-0.127,38.025,-20.569,-23.926
-0.081,0.572,-0.155,-46.936,1.587,-26.794
0.307,1.103,-0.122,-35.522,5.371,-7.812
-0.304,1.246,-0.231,-1.831,3.601,-0.305
0.149,0.867,-0.270,-5.676,6.042,-10.071
-0.173,0.872,-0.201,-13.367,8.789,-15.198
-0.033,0.901,-0.188,-25.024,-5.676,-12.024
-0.020,0.997,-0.276,-26.367,-21.179,-6.348
-0.049,0.958,-0.304,-22.217,-13.733,-3.906
-0.138,1.006,-0.234,-21.790,-11.230,-2.563
0.078,1.020,-0.313,-18.066,-14.282,0.366
-0.039,0.881,-0.238,-21.057,-11.108,0.366
-0.117,0.949,-0.258,-23.010,-7.751,0.610
0.258,0.973,-0.314,-24.292,-6.409,0.000
-0.048,1.026,-0.293,-24.658,-3.418,2.441
-0.092,1.021,-0.385,-17.761,2.808,5.371
0.303,0.992,-0.335,-12.634,7.629,6.409
-0.092,0.948,-0.302,-8.911,10.437,10.986
-0.307,0.991,-0.339,-3.784,11.475,15.930
0.259,0.920,-0.322,-9.766,8.911,13.184
0.127,1.064,-0.293,-11.902,5.493,15.137
-0.556,0.975,-0.283,-11.841,-0.793,21.667
0.346,0.927,-0.385,-11.597,4.028,20.020
-0.195,0.997,-0.265,-10.559,11.719,20.386
-0.373,1.067,-0.455,1.953,15.076,25.940
0.242,0.887,-0.290,2.563,12.756,26.611
-0.250,0.933,-0.287,-3.174,14.893,26.611
-0.047,0.995,-0.384,2.563,18.921,25.452
0.076,0.904,-0.286,0.610,21.057,24.292
-0.136,0.942,-0.294,3.540,17.761,25.879
-0.099,0.985,-0.331,7.874,13.611,26.306
-0.057,0.896,-0.327,10.132,11.719,27.466
-0.026,0.950,-0.335,10.437,8.789,26.672
-0.315,0.947,-0.243,9.766,5.859,27.405
0.153,0.879,-0.324,12.024,4.578,27.344
-0.185,0.964,-0.277,10.315,4.700,24.536
-0.301,0.886,-0.266,7.935,3.235,26.855
-0.077,0.890,-0.299,5.493,2.625,25.513
-0.231,0.900,-0.278,4.395,4.517,24.170
-0.097,0.906,-0.293,2.869,3.967,20.996
-0.331,0.937,-0.263,6.409,3.784,20.508
-0.054,0.852,-0.262,3.662,3.113,18.188
-0.183,0.907,-0.278,3.540,3.418,15.625
-0.253,0.900,-0.285,4.333,3.540,16.052
-0.020,0.849,-0.298,3.784,2.869,14.099
-0.130,0.945,-0.295,2.991,1.953,10.010
-0.281,0.888,-0.286,5.005,4.395,11.414
0.003,0.894,-0.253,1.953,5.676,7.263
-0.185,0.877,-0.236,1.953,5.310,6.042
-0.410,0.940,-0.266,-2.930,3.662,6.409
-0.143,0.887,-0.238,-5.310,2.930,8.179
0.228,0.915,-0.294,-9.399,1.526,3.540
-0.552,1.040,-0.395,-5.920,3.601,7.202
-0.477,0.841,-0.232,-9.216,1.404,13.672
0.395,0.985,-0.235,-8.606,2.869,10.620
-0.739,0.875,-0.270,-7.507,2.197,16.785
-0.160,1.028,-0.381,-6.042,1.343,18.311
-0.065,0.925,-0.235,-6.836,2.991,17.883
-0.149,0.934,-0.387,-3.906,4.944,21.973
-0.366,0.947,-0.291,-4.272,5.310,24.353
-0.233,0.962,-0.319,-2.258,5.981,28.687
-0.108,1.069,-0.423,4.028,15.198,32.043
-0.278,0.936,-0.328,3.479,18.616,37.781
-0.206,0.921,-0.329,-2.380,18.066,41.809
-0.284,1.050,-0.276,-0.793,19.287,48.218
-0.115,0.985,-0.372,-4.700,20.996,55.115
-0.182,0.978,-0.286,0.183,23.315,60.608
-0.592,0.974,-0.283,-5.920,23.987,70.679
-0.153,1.021,-0.358,-11.841,27.100,79.163
-0.389,0.925,-0.230,-13.855,31.433,87.524
-0.341,0.960,-0.393,-19.348,33.386,98.328
-0.444,0.967,-0.328,-27.893,39.490,105.713
-0.295,1.027,-0.301,-26.367,44.800,119.080
-0.410,1.015,-0.375,-33.203,50.537,127.686
-0.431,0.980,-0.402,-40.161,58.350,141.785
-0.031,1.196,-0.523,-41.992,65.735,152.344
-0.488,1.020,-0.405,-41.870,73.181,167.847
-0.308,1.420,-0.572,-49.133,77.820,182.556
-0.510,1.415,-0.505,-41.138,84.473,203.369
-0.792,1.389,-0.538,-45.410,86.731,218.567
-0.636,1.762,-0.698,-54.749,89.233,232.056
-0.310,1.955,-0.834,-54.504,90.210,239.807
-0.888,1.946,-0.738,-29.541,91.187,251.526
-0.813,2.040,-0.900,-23.315,83.252,250.488
-0.381,2.531,-1.257,-24.109,66.223,233.643
-0.919,2.272,-0.996,0.244,62.317,234.497
-0.122,1.901,-0.748,2.625,64.331,236.084
0.311,2.058,-0.829,14.893,64.758,235.413
0.419,1.514,-0.547,45.227,78.674,260.986
-0.157,0.168,-0.243,13.855,104.248,276.855
-0.499,1.290,-0.471,-52.429,130.188,207.703
0.363,2.291,-0.550,-67.383,131.775,117.615
0.903,1.726,-0.718,-111.267,119.934,30.579
0.987,1.830,-0.780,-83.862,108.093,-16.846
0.768,1.416,-0.474,-74.280,92.468,-49.316
0.570,1.501,-0.405,-43.030,75.195,-58.960
0.491,1.297,-0.362,3.052,55.115,-50.354
0.474,1.082,-0.362,47.974,30.640,-38.818
0.495,0.848,-0.380,81.665,5.249,-35.034
0.489,0.578,-0.429,88.928,-13.611,-44.556
0.476,0.408,-0.482,78.064,-24.902,-62.927
0.458,0.308,-0.490,59.631,-31.799,-84.290
0.405,0.266,-0.470,40.283,-35.339,-104.675
0.360,0.301,-0.455,25.818,-37.720,-121.643
0.338,0.354,-0.444,16.968,-41.260,-133.484
0.318,0.392,-0.426,9.094,-46.326,-143.555
0.285,0.444,-0.404,3.906,-51.941,-152.222
0.250,0.522,-0.392,3.784,-58.655,-158.630
0.205,0.564,-0.388,7.874,-66.162,-163.269
0.132,0.541,-0.402,7.996,-75.928,-167.358
0.201,0.503,-0.279,1.709,-88.013,-171.082
-0.002,0.351,-0.505,-12.878,-69.946,-183.472
0.211,0.844,-0.452,1.343,-96.619,-184.021
0.097,0.563,-0.492,-7.324,-107.300,-194.763
0.115,0.903,-0.557,-7.812,-110.779,-205.872
0.098,0.941,-0.564,-10.559,-111.633,-219.360
-0.000,0.966,-0.559,-1.953,-110.168,-229.248
-0.139,0.906,-0.544,4.456,-102.722,-234.314
-0.288,0.769,-0.502,7.263,-91.614,-230.713
-0.426,0.696,-0.486,6.104,-81.055,-218.628
-0.502,0.597,-0.448,-2.075,-72.754,-202.332
-0.507,0.684,-0.478,-8.179,-61.096,-186.584
-0.395,0.934,-0.576,-7.690,-54.016,-178.223
-0.240,1.118,-0.728,-19.714,-50.903,-184.753
-0.046,1.493,-0.859,-31.616,-60.364,-198.792
-0.004,1.703,-0.919,-29.724,-76.782,-206.482
-0.222,1.686,-0.887,-16.296,-97.656,-200.073
-0.658,1.501,-0.844,-8.972,-113.403,-183.960
-1.043,1.398,-0.748,-7.812,-120.483,-163.574
-1.195,1.288,-0.615,-18.372,-118.164,-148.804
-1.468,1.382,-0.506,-32.288,-113.770,-138.916
-1.798,1.294,-0.486,-50.049,-111.511,-127.808
-1.876,2.113,-0.501,-14.954,-90.027,-108.093
-2.068,1.152,-0.172,-39.795,-69.031,-98.877
-2.072,1.638,-0.333,-47.729,-52.246,-85.571
-2.157,1.639,-0.361,-15.015,-43.701,-68.604
-2.239,1.382,-0.248,-0.854,-50.537,-51.758
-2.356,1.257,-0.296,20.020,-51.880,-32.837
-2.465,0.961,-0.211,35.706,-42.847,-13.977
-2.427,0.690,-0.199,19.165,-32.593,-0.854
-2.279,0.727,-0.160,2.380,-26.672,9.460
-2.305,0.542,-0.232,-12.695,-15.320,18.799
-2.209,0.565,-0.192,-13.428,-13.367,40.039
-2.196,0.528,-0.258,-6.104,-1.892,65.674
-2.073,0.606,-0.253,-17.029,10.010,86.060
-1.925,1.123,-0.193,4.517,20.935,97.717
-1.604,1.499,0.039,47.729,27.832,98.877
-1.263,2.270,-0.168,7.507,30.701,71.960
1.198,3.766,-0.835,273.315,-26.428,84.290
-0.573,0.663,-0.504,318.359,-85.815,90.576
-0.014,0.770,-0.147,239.868,-86.670,67.566
0.137,0.620,0.373,174.805,-81.604,55.725
-0.781,-0.378,-0.026,-9.338,-29.846,1.343
0.143,0.791,-0.306,-97.595,24.475,-3.845
0.168,1.632,-0.314,3.418,10.864,30.029
-0.303,0.664,-0.448,12.390,3.296,17.700
-0.095,1.125,-0.286,37.476,17.151,3.174
0.155,0.830,-0.110,21.545,9.460,-11.169
-0.094,0.922,-0.061,-9.399,-4.517,-7.751
0.373,0.849,-0.040,-34.485,-16.968,-3.784
-0.029,0.985,-0.104,-39.063,-20.691,0.854
-0.111,1.011,-0.226,-31.006,-18.677,7.812
0.016,1.009,-0.269,-31.067,-18.677,9.399
-0.061,0.948,-0.344,-31.982,-13.733,8.850
-0.085,1.038,-0.294,-31.555,-10.986,10.742
0.072,0.988,-0.306,-32.471,-8.972,11.108
0.012,0.960,-0.297,-27.649,-1.526,11.841
-0.104,1.003,-0.312,-17.639,7.019,13.428
0.157,0.931,-0.260,-12.756,12.573,13.550
0.072,0.982,-0.309,-13.000,9.460,12.939
-0.144,0.891,-0.355,-12.085,9.338,11.902
0.221,1.022,-0.313,-11.597,16.785,7.324
-0.021,0.987,-0.333,-1.343,14.832,11.597
-0.258,0.998,-0.293,3.784,9.888,15.808
0.054,0.911,-0.265,0.977,11.902,15.198
0.370,1.018,-0.297,0.854,8.423,14.404
-0.385,0.985,-0.393,5.554,5.371,19.104
-0.278,0.902,-0.281,6.714,8.850,24.170
0.453,1.045,-0.200,4.211,8.667,23.254
-0.495,0.880,-0.347,11.780,4.578,26.733
-0.071,1.026,-0.236,10.132,8.789,26.855
0.172,0.897,-0.199,7.629,8.423,28.687
-0.234,0.886,-0.378,7.690,3.540,26.733
-0.210,0.979,-0.241,7.080,2.014,25.452
0.120,0.874,-0.266,5.615,4.700,24.475
-0.113,0.974,-0.318,10.620,8.423,22.766
-0.199,0.990,-0.273,15.076,6.897,23.437
-0.016,0.821,-0.265,12.024,6.775,21.973
-0.006,0.896,-0.280,5.676,10.315,16.174
-0.365,0.914,-0.250,4.089,6.836,16.357
0.134,0.883,-0.234,4.944,5.127,13.977
-0.123,0.975,-0.221,5.310,2.808,11.597
-0.358,0.899,-0.263,2.808,-0.183,11.658
-0.097,0.845,-0.216,-0.122,-0.122,9.766
-0.147,0.897,-0.238,0.183,1.038,8.667
-0.173,0.933,-0.327,1.648,3.113,7.080
-0.224,0.876,-0.239,0.000,3.784,4.883
-0.151,0.871,-0.251,-4.517,2.747,3.296
-0.114,0.951,-0.247,-6.104,0.732,0.916
-0.220,0.906,-0.259,-5.493,-1.343,2.258
-0.153,0.919,-0.264,-2.747,0.061,1.648
0.063,0.972,-0.256,-0.061,-0.488,1.160
-0.234,0.878,-0.303,-2.563,-2.930,2.319
-0.155,0.937,-0.281,-4.089,-1.038,2.625
0.058,0.964,-0.240,-7.080,-1.221,1.526
-0.261,0.931,-0.305,-4.822,-2.014,4.883
-0.460,0.935,-0.281,-3.784,1.160,7.324
0.065,0.938,-0.248,-7.324,3.479,5.188
0.026,1.009,-0.303,-6.226,5.493,4.639
-0.779,0.853,-0.334,-7.568,6.836,10.620
0.172,0.942,-0.239,-8.545,7.935,10.132
-0.223,0.931,-0.243,-13.306,4.700,11.536
-0.609,0.982,-0.408,-11.353,3.235,18.494
0.142,0.962,-0.246,-13.367,3.540,18.921
-0.324,0.870,-0.294,-12.634,2.991,26.489
-0.208,1.114,-0.366,-5.615,8.179,32.227
0.017,1.020,-0.311,-5.859,8.789,38.269
-0.250,0.883,-0.337,-7.080,10.803,44.250
-0.302,1.073,-0.332,-6.592,16.235,48.889
-0.197,0.990,-0.361,-3.601,22.766,58.838
-0.020,0.982,-0.332,-7.141,27.588,62.317
-0.597,0.924,-0.286,-6.470,25.269,73.792
0.106,1.146,-0.342,-8.118,26.855,80.383
-0.277,0.900,-0.242,-13.916,28.198,85.632
-0.624,1.009,-0.314,-18.799,30.212,97.839
-0.144,0.974,-0.366,-24.597,37.415,106.201

-2.154,1.288,-0.124,-36.804,-77.881,-93.140
-2.590,1.129,-0.338,-32.837,-46.936,-80.933
-2.744,1.245,-0.276,20.752,-48.950,-49.438
-2.789,1.123,-0.168,46.997,-16.724,-26.733
-2.715,0.924,-0.154,39.063,-9.521,-10.254
-2.572,0.968,-0.261,33.508,-5.005,2.869
-2.493,0.736,-0.334,22.400,0.671,15.381
-2.453,0.642,-0.408,8.606,0.549,32.410
-2.552,0.870,-0.343,23.071,-1.099,59.387
-2.691,0.678,-0.343,22.949,10.071,76.233
-2.940,1.595,-0.481,-42.603,14.343,44.678
-1.412,3.425,-1.919,226.257,29.480,58.105
-0.465,0.389,0.132,257.935,-44.128,64.514
0.070,0.842,-0.288,203.186,-74.707,23.254
-0.147,0.865,0.054,170.532,-72.998,21.240
-0.210,-0.148,-0.096,16.785,-35.156,-3.113
-0.302,0.361,-0.309,-89.417,14.648,-16.785
0.024,1.286,-0.471,-68.604,54.199,-2.136
-0.200,1.530,-0.333,36.621,27.588,22.766
-0.206,0.434,-0.384,7.874,18.616,-4.089
-0.185,1.474,-0.331,30.518,19.226,-7.690
0.068,0.704,-0.159,27.771,11.963,-7.385
0.057,0.823,-0.080,-4.944,-4.333,-8.545
-0.079,1.009,-0.149,-0.549,-6.653,-0.122
0.317,0.810,-0.126,-22.156,-12.451,-4.150
-0.105,1.067,-0.336,-26.367,-9.033,-3.357
0.085,1.049,-0.248,-19.714,-14.709,3.479
0.170,0.998,-0.290,-13.794,-18.677,7.935
-0.172,1.031,-0.401,-7.019,-7.324,11.536
-0.178,1.028,-0.258,-1.587,-0.977,16.479
0.294,0.959,-0.219,-10.986,4.944,12.146
-0.105,0.942,-0.248,-9.949,7.202,16.541
-0.425,0.851,-0.302,-16.907,5.676,19.287
0.554,0.993,-0.236,-21.423,7.446,15.015
-0.462,0.887,-0.329,-21.545,3.357,15.747
-0.103,1.102,-0.359,-15.137,5.493,15.198
0.213,0.942,-0.201,-5.737,8.240,17.212
-0.198,0.914,-0.352,-2.869,6.042,16.174
-0.156,1.041,-0.285,3.906,10.376,15.625
0.132,0.828,-0.262,3.540,8.057,15.198
0.063,0.978,-0.326,3.479,5.737,12.207
-0.229,0.933,-0.315,5.859,5.920,11.780
0.016,0.952,-0.250,7.812,5.005,12.085
0.106,0.941,-0.227,9.155,4.517,10.742
-0.438,0.862,-0.285,4.944,2.502,11.047
0.257,0.993,-0.318,3.357,3.662,6.836
-0.139,0.896,-0.268,0.671,-0.305,5.371
-0.417,0.945,-0.324,1.465,-2.747,8.545
0.063,0.969,-0.241,4.089,-3.784,8.545
-0.195,0.825,-0.225,1.221,-5.127,8.423
-0.093,1.010,-0.284,-0.671,-5.676,5.737
-0.251,0.858,-0.249,-1.404,-5.981,5.676
-0.034,0.909,-0.271,-4.272,-6.226,3.052
-0.157,0.934,-0.273,-2.930,-6.592,2.014
-0.203,0.920,-0.289,-0.488,-5.310,3.479
0.026,0.927,-0.283,1.404,-3.235,1.709
-0.061,0.972,-0.266,2.197,-4.272,1.038
-0.226,0.903,-0.328,3.601,-3.418,3.113
0.058,0.961,-0.278,5.127,-2.258,0.427
-0.084,0.890,-0.271,3.784,-3.479,0.305
-0.290,0.930,-0.320,0.610,-3.357,0.793
-0.239,0.945,-0.278,2.991,-1.465,2.563
0.182,0.937,-0.232,2.014,-0.671,-0.732
-0.238,0.910,-0.302,1.099,-0.671,-0.183
-0.618,0.935,-0.340,5.188,0.854,5.188
0.515,0.945,-0.163,1.953,3.235,1.099
-0.497,0.839,-0.285,-5.127,1.709,5.249
-0.263,1.073,-0.386,-0.061,0.916,8.057
0.148,0.922,-0.201,-3.235,3.540,7.446
-0.257,0.843,-0.314,-3.845,4.395,11.902
-0.327,1.024,-0.309,-1.465,6.958,12.695
0.066,0.985,-0.264,-4.395,6.897,15.015
0.009,0.926,-0.284,-4.272,8.484,16.235
-0.286,0.921,-0.276,-6.042,6.653,18.616
-0.260,0.909,-0.370,-5.066,7.812,21.851
0.096,0.943,-0.239,-10.315,5.737,20.813
-0.500,0.859,-0.301,-13.672,4.639,25.208
0.168,1.034,-0.327,-10.803,7.080,25.330
-0.184,0.986,-0.296,-10.864,7.874,30.334
-0.412,0.962,-0.369,-4.700,8.545,40.039
-0.081,0.948,-0.268,-7.690,11.292,42.542
-0.235,0.976,-0.357,-10.071,14.099,47.913
-0.262,1.019,-0.328,-7.080,13.916,55.359
-0.172,1.009,-0.346,-7.568,14.404,63.965
-0.188,0.927,-0.270,-9.094,18.616,69.641
-0.314,1.024,-0.306,-12.878,22.949,76.416
-0.063,0.987,-0.310,-13.977,25.574,85.510
-0.196,0.973,-0.308,-18.372,30.396,88.196
-0.517,1.004,-0.395,-21.240,37.048,97.961
-0.003,1.047,-0.374,-25.574,44.128,103.699
-0.387,0.867,-0.348,-29.236,48.096,112.488
-0.593,0.974,-0.422,-37.659,55.176,126.831
-0.067,1.137,-0.422,-48.218,66.895,136.902
-0.088,1.219,-0.386,-45.654,75.562,152.405
-0.991,1.045,-0.432,-50.720,80.933,179.321
-0.063,1.668,-0.665,-62.256,88.196,199.951
-0.650,1.345,-0.443,-45.776,101.135,229.980
-0.676,1.568,-0.689,-58.899,104.126,246.826
-0.515,2.133,-0.875,-66.345,104.248,265.930
-0.751,1.997,-0.880,-65.369,105.103,283.325
-0.790,2.313,-1.135,-58.533,96.680,283.447
-0.573,2.069,-1.243,-73.486,82.336,271.301
-0.548,2.554,-1.258,-75.562,74.280,252.991
-0.315,2.787,-1.064,-57.373,72.205,243.530
0.253,2.610,-0.744,-26.184,75.256,248.596
0.428,2.022,-0.342,6.897,86.487,273.132
-0.443,0.805,-0.014,2.319,110.779,278.259
-0.651,2.699,-0.627,-20.386,134.583,182.922
0.726,2.757,-0.331,-5.432,125.916,97.961
0.672,2.376,-0.581,-12.329,111.877,14.771
0.671,1.923,-0.519,35.156,97.656,-28.870
0.311,1.081,-0.308,32.288,88.745,-59.143
0.067,0.818,-0.248,35.217,85.815,-67.627
-0.008,0.460,-0.160,36.560,83.557,-62.683
0.031,0.317,-0.069,33.752,75.500,-55.603
0.083,0.329,-0.063,39.612,65.674,-50.171
0.127,0.265,-0.081,39.429,62.012,-50.537
0.207,0.229,-0.075,34.363,60.852,-52.917
0.290,0.250,-0.059,34.485,58.472,-55.786
0.353,0.283,-0.075,38.696,54.199,-62.378
0.413,0.309,-0.121,41.443,49.133,-72.998
0.467,0.356,-0.180,42.419,43.640,-87.097
0.508,0.393,-0.235,42.053,36.926,-104.248
0.539,0.403,-0.283,39.856,28.137,-123.291
0.540,0.395,-0.321,35.889,17.456,-142.151
0.499,0.373,-0.351,29.785,5.615,-158.447
0.434,0.347,-0.380,22.705,-6.165,-169.250
0.364,0.330,-0.411,15.747,-17.761,-174.622
0.315,0.300,-0.426,8.301,-29.602,-177.063
0.282,0.274,-0.433,-1.465,-41.077,-179.382
0.264,0.297,-0.449,-12.329,-52.979,-181.519
0.315,0.332,-0.362,-27.527,-63.599,-182.800
0.125,0.140,-0.500,-56.396,-49.622,-194.214
0.271,0.540,-0.442,-62.256,-72.693,-192.627
0.307,0.589,-0.354,-40.039,-110.046,-183.533
0.055,0.480,-0.519,-52.185,-110.107,-186.523
0.031,0.618,-0.531,-55.115,-102.722,-186.768
0.006,0.600,-0.526,-64.941,-99.426,-184.387
-0.028,0.661,-0.548,-58.533,-98.389,-176.086
-0.066,0.728,-0.562,-59.448,-90.759,-171.509
-0.049,0.977,-0.568,-55.481,-86.548,-169.312
-0.010,1.237,-0.621,-46.082,-90.515,-170.532
0.007,1.405,-0.679,-36.072,-100.891,-175.842
-0.017,1.547,-0.683,-25.024,-118.713,-182.373
-0.215,1.635,-0.750,-12.207,-132.935,-187.195
-0.439,1.469,-0.712,-9.399,-148.010,-188.721
-0.830,1.401,-0.757,-11.047,-148.071,-183.472
-1.165,1.249,-0.652,-19.409,-146.790,-168.762
-1.543,1.206,-0.584,-33.630,-134.155,-148.865
-1.848,1.177,-0.527,-57.495,-118.530,-129.944
-2.063,1.290,-0.472,-88.379,-96.069,-116.882
-2.432,1.463,-0.828,-114.075,-45.654,-115.479
-2.145,2.172,-0.231,-72.754,-60.974,-97.473
-2.492,1.986,-0.184,-20.874,-39.673,-79.590
-2.710,2.154,-0.304,44.250,-19.043,-60.974
-2.804,1.282,0.075,30.945,-1.038,-50.720
-2.899,1.179,-0.133,39.490,11.475,-32.532
-2.865,0.783,-0.123,22.644,20.203,-12.756
-2.726,0.610,-0.176,-12.146,22.644,3.906
-2.654,0.618,-0.289,-34.729,28.442,20.935
-2.605,0.982,-0.192,-48.462,35.461,37.415
-2.551,1.195,-0.079,-1.709,42.725,65.125
-2.466,1.396,0.057,-8.667,54.504,65.186
-1.364,4.000,-1.098,86.731,59.143,42.847
0.046,1.752,-0.528,328.918,-18.250,75.562
0.102,0.213,-0.175,239.441,-66.895,52.246
0.344,0.882,0.201,166.077,-74.158,47.852
-0.503,-0.025,0.037,50.415,-50.537,29.541
-0.129,0.162,-0.223,-94.727,-10.864,0.610
-0.185,1.302,-0.519,-82.947,35.645,5.554
0.159,1.287,-0.132,-6.042,20.508,22.278
-0.175,0.689,-0.361,-38.269,15.137,-6.958
-0.301,1.359,-0.406,12.451,30.090,0.366
0.189,0.824,-0.203,-2.136,12.512,2.258
0.015,0.855,-0.168,-16.113,-6.042,6.348
-0.027,0.953,-0.267,-13.855,-6.897,5.554
0.007,0.953,-0.205,-15.503,-12.512,4.822
0.009,0.922,-0.283,-12.939,-17.212,5.127
-0.041,0.967,-0.269,-16.357,-21.606,3.784
0.105,0.949,-0.335,-18.066,-20.508,1.831
0.081,1.051,-0.311,-16.296,-18.982,2.686
-0.169,1.008,-0.387,-5.127,-13.733,6.714
0.274,0.995,-0.342,1.770,-7.812,6.042
-0.040,0.901,-0.294,2.014,-3.052,7.385
-0.277,0.961,-0.314,1.221,0.977,12.695
0.167,0.990,-0.290,-1.282,4.150,13.428
0.354,0.990,-0.321,-1.038,10.986,10.742
-0.538,1.033,-0.325,6.104,16.052,17.700
-0.005,0.974,-0.266,7.996,14.099,24.109
0.288,0.972,-0.188,0.427,8.911,21.973
-0.521,0.891,-0.344,-0.916,9.338,24.231
0.076,1.012,-0.258,-3.357,8.911,23.499
0.056,0.896,-0.249,-0.244,5.432,22.461
-0.077,0.952,-0.384,5.310,4.944,20.813
-0.245,0.957,-0.246,7.690,6.348,19.714
-0.012,0.917,-0.289,8.423,3.479,18.921
0.098,0.920,-0.345,9.583,4.822,15.747
-0.216,0.976,-0.320,16.846,4.211,18.433
-0.060,0.947,-0.305,18.127,2.502,18.005
0.073,0.935,-0.258,21.606,2.075,16.602
-0.438,0.939,-0.258,25.452,0.793,18.066
0.210,0.917,-0.258,19.897,0.916,12.390
-0.099,0.890,-0.249,18.311,-0.916,10.437
-0.468,0.931,-0.281,16.357,-4.089,13.245
0.043,0.897,-0.218,12.512,-4.272,12.329
-0.234,0.890,-0.272,14.404,-1.099,13.367
-0.131,0.997,-0.289,10.986,5.554,9.949
-0.338,0.887,-0.206,13.489,9.216,11.353
-0.021,0.948,-0.243,16.357,11.536,9.766
-0.208,0.863,-0.234,14.465,13.794,7.324
-0.265,0.839,-0.214,2.808,12.207,5.066
0.015,0.808,-0.207,-8.606,12.085,-0.183
-0.131,0.935,-0.226,-14.771,7.263,-2.502
-0.231,0.913,-0.230,-14.160,0.244,1.343
0.086,0.973,-0.221,-11.780,-3.357,-0.732
-0.218,0.976,-0.267,-2.136,-3.113,1.709
-0.434,0.942,-0.269,-0.610,-4.028,4.211
-0.090,0.918,-0.212,0.366,-4.211,4.456
0.254,0.924,-0.268,-2.747,-2.502,-0.610
-0.498,0.900,-0.297,-8.118,-3.418,1.404
-0.405,0.921,-0.256,-11.658,-1.953,4.822
0.288,0.993,-0.216,-13.916,0.183,-0.488
-0.683,0.978,-0.356,2.380,0.427,10.986
-0.088,0.918,-0.221,0.366,-1.221,10.803
0.003,0.924,-0.220,-0.916,0.000,12.207
-0.165,0.859,-0.373,-5.615,2.991,13.428
-0.301,0.989,-0.249,-7.751,5.493,13.367
-0.192,0.970,-0.279,-4.944,4.700,17.517
-0.001,0.947,-0.265,-5.981,6.287,17.456
-0.239,0.975,-0.239,-5.859,4.395,23.743
-0.155,0.974,-0.306,-6.531,9.583,27.466
-0.226,1.110,-0.297,-5.005,14.282,32.288
-0.064,0.980,-0.314,-4.700,11.841,40.527
-0.120,1.021,-0.307,-3.235,11.841,43.884
-0.509,0.970,-0.335,-4.333,11.597,53.162
-0.137,1.049,-0.324,-1.953,15.686,62.317
-0.299,0.946,-0.243,-1.465,17.578,69.885
-0.240,1.082,-0.340,-1.526,21.606,77.637

0.572,0.421,-0.452,6.042,-17.517,-170.166
0.501,0.399,-0.450,2.380,-32.288,-174.683
0.425,0.379,-0.453,-3.052,-46.387,-176.514
0.348,0.360,-0.462,-11.475,-59.204,-177.002
0.292,0.364,-0.480,-22.034,-70.251,-176.392
0.247,0.374,-0.489,-34.302,-79.773,-175.598
0.203,0.394,-0.499,-50.720,-88.196,-176.392
0.415,0.444,-0.311,-76.782,-115.906,-178.040
-0.161,0.570,-0.766,-93.628,-103.455,-181.030
0.209,0.881,-0.420,-86.609,-99.182,-184.814
0.052,0.207,-0.302,-135.986,-126.648,-194.092
0.130,1.384,-0.517,-75.439,-151.611,-173.035
-0.095,1.047,-0.546,-56.946,-140.808,-172.302
-0.246,1.291,-0.632,-33.875,-108.032,-171.326
-0.289,1.231,-0.573,-22.217,-77.271,-175.232
-0.258,1.431,-0.577,-18.616,-63.660,-176.819
-0.221,1.347,-0.485,-11.658,-81.543,-168.762
-0.339,1.284,-0.450,-16.174,-100.403,-158.203
-0.572,1.379,-0.510,-25.574,-111.328,-146.118
-0.807,1.472,-0.546,-21.423,-110.413,-131.042
-0.980,1.545,-0.495,-3.845,-109.985,-112.305
-1.291,1.439,-0.537,13.672,-102.173,-95.093
-1.393,1.444,-0.475,28.931,-102.844,-82.153
-1.989,0.903,-0.673,9.155,-78.857,-81.482
-1.641,1.112,-0.414,-21.790,-68.115,-86.975
-2.154,1.311,-0.692,-33.203,-58.838,-88.562
-2.010,2.216,-0.686,13.184,-50.781,-83.008
-2.375,1.036,-0.207,-31.799,-25.574,-90.759
-2.435,1.514,-0.262,-42.725,-3.906,-81.787
-2.461,1.434,-0.192,7.751,5.676,-55.176
-2.461,1.083,-0.144,39.490,5.493,-26.794
-2.494,0.753,-0.169,43.152,6.042,-0.916
-2.468,0.443,-0.218,16.479,10.376,16.724
-2.410,0.380,-0.262,-7.263,13.977,32.288
-2.264,0.275,-0.263,-29.236,14.709,49.316
-2.225,0.358,-0.400,-40.527,8.606,73.364
-2.373,1.112,-0.343,-24.475,18.921,90.149
-2.199,1.429,0.027,14.954,32.776,95.886
-2.253,3.990,-0.762,38.086,37.292,40.527
0.799,3.011,-0.496,395.203,-19.165,84.778
-0.409,-0.418,-0.274,296.936,-59.143,51.208
0.141,0.916,-0.016,222.534,-91.980,24.963
-0.242,0.380,-0.022,148.010,-76.599,13.916
-0.262,0.463,-0.107,1.404,-53.772,-9.949
-0.252,0.243,-0.142,-117.126,-25.330,-18.616
-0.001,1.477,-0.383,-74.036,6.592,-5.737
-0.448,1.007,-0.425,-18.799,15.503,-9.827
0.233,1.077,-0.167,-7.935,-7.385,-9.033
-0.218,1.060,-0.413,-0.671,1.892,-3.052
0.125,0.947,-0.281,-1.770,5.371,3.845
0.016,0.918,-0.221,-11.353,-2.197,7.629
-0.059,0.872,-0.244,-21.729,4.333,3.052
0.284,0.956,-0.178,-25.818,5.249,1.160
-0.030,0.902,-0.156,-30.273,-11.597,7.080
0.164,0.985,-0.344,-29.907,-13.062,7.629
0.087,1.000,-0.310,-22.644,-16.968,11.292
-0.194,1.001,-0.359,-19.348,-16.785,16.052
-0.042,1.005,-0.369,-14.404,-9.583,17.761
0.404,0.928,-0.307,-18.860,-1.831,13.245
-0.322,0.923,-0.257,-24.048,4.150,14.343
-0.263,0.920,-0.361,-21.362,10.925,15.259
0.499,0.927,-0.249,-27.527,15.686,9.277
-0.537,0.959,-0.383,-22.217,15.381,12.512
0.051,1.084,-0.421,-10.376,15.564,12.695
0.167,0.885,-0.262,-6.409,14.038,14.099
-0.113,0.994,-0.376,-0.488,6.287,15.747
-0.142,0.945,-0.293,1.160,2.686,16.052
0.110,0.890,-0.387,-1.282,7.996,13.733
0.050,0.985,-0.359,0.000,8.911,12.329
-0.202,0.954,-0.315,2.563,6.531,15.137
0.019,0.930,-0.365,0.916,9.766,13.794
0.062,0.933,-0.304,1.343,12.573,12.268
-0.385,0.911,-0.312,3.662,13.000,14.282
0.217,1.009,-0.384,7.202,11.414,13.062
-0.083,0.930,-0.269,5.737,5.432,12.451
-0.352,0.933,-0.347,9.155,4.395,15.991
-0.020,0.902,-0.318,6.592,4.150,14.404
-0.185,0.860,-0.268,3.235,8.911,12.207
-0.080,0.964,-0.335,4.761,7.568,10.986
-0.188,0.882,-0.286,7.446,5.005,11.414
-0.132,0.867,-0.319,3.662,3.174,9.277
-0.092,0.901,-0.291,-0.366,0.061,4.944
-0.136,0.889,-0.291,0.244,-2.258,4.761
-0.207,0.907,-0.302,2.136,-3.479,3.784
0.102,0.938,-0.325,5.066,-3.540,0.732
-0.238,0.882,-0.326,5.554,-1.404,1.282
-0.151,0.905,-0.359,6.165,-1.404,0.122
0.090,0.925,-0.318,7.019,-1.221,-2.441
-0.193,0.869,-0.297,4.517,-1.038,-2.197
-0.470,0.954,-0.297,5.188,-2.258,0.183
0.070,0.926,-0.294,5.554,-1.587,-1.282
0.181,0.959,-0.276,3.601,-1.526,-4.639
-0.553,0.870,-0.314,3.174,-1.953,0.000
-0.219,0.877,-0.341,5.371,-0.427,0.061
0.150,0.948,-0.234,-0.366,0.061,-5.066
-0.609,0.901,-0.342,-1.831,-1.282,1.709
-0.085,0.973,-0.369,1.953,-1.587,0.488
-0.075,0.873,-0.207,-0.610,2.869,1.953
-0.062,0.928,-0.353,-1.038,3.479,3.113
-0.367,0.892,-0.311,-0.366,4.333,2.502
-0.092,0.921,-0.268,-3.357,3.296,3.906
0.065,0.971,-0.346,-6.836,1.953,2.991
-0.229,0.901,-0.312,-4.578,4.089,6.592
-0.167,0.914,-0.320,-4.272,3.235,8.728
-0.039,1.018,-0.307,-3.662,2.930,10.437
-0.277,0.846,-0.332,-6.714,7.812,11.597
0.049,0.978,-0.320,-7.751,7.568,9.888
-0.260,0.970,-0.323,-7.446,5.798,17.334
-0.221,0.922,-0.384,-5.371,3.723,22.827
-0.160,0.961,-0.308,-6.104,6.348,27.466
-0.154,0.982,-0.388,-3.967,7.446,34.790
-0.330,1.001,-0.345,-2.075,7.568,41.626
-0.079,0.985,-0.361,-1.221,12.634,49.683
-0.212,0.945,-0.323,-3.296,19.531,54.688
-0.303,0.990,-0.420,-5.554,20.874,64.148
-0.050,1.073,-0.361,-6.836,27.039,70.190
-0.210,0.991,-0.291,-13.245,30.884,75.989
-0.443,1.034,-0.406,-15.442,35.828,89.111
0.121,1.049,-0.335,-15.930,39.795,100.586
-0.245,0.902,-0.391,-24.597,42.603,113.342
-0.612,1.026,-0.484,-31.982,48.096,131.287
0.024,1.127,-0.448,-40.161,57.373,142.944
-0.100,1.077,-0.380,-44.617,66.956,154.724
-1.029,1.059,-0.453,-53.894,80.505,178.406
0.163,1.578,-0.577,-58.105,96.680,196.167
-0.555,1.158,-0.354,-42.297,110.779,219.666
-0.571,1.492,-0.756,-55.237,110.840,234.436
-0.463,2.121,-0.895,-48.096,110.046,255.676
-0.583,1.903,-0.858,-40.710,108.398,277.039
-0.713,2.295,-0.973,-33.325,102.478,278.259
-0.631,2.356,-1.139,-11.658,91.675,274.597
-0.395,2.296,-1.256,-10.071,77.026,257.507
-0.515,2.592,-1.187,-0.732,66.833,243.774
0.014,2.375,-0.793,18.616,60.730,247.375
0.602,2.035,-0.593,35.706,57.434,259.521
0.552,1.478,-0.395,57.068,62.500,281.677
-0.165,1.078,-0.434,59.814,80.872,268.188
0.140,1.861,-0.506,-3.540,104.736,163.879
0.770,2.125,-0.646,-39.063,108.032,56.091
1.038,1.811,-0.610,-29.968,105.713,-15.869
0.876,1.370,-0.425,-15.564,102.966,-63.660
0.677,1.206,-0.368,-1.038,96.741,-87.585
0.527,0.928,-0.312,14.587,88.684,-93.445
0.433,0.678,-0.231,27.344,78.003,-90.698
0.399,0.537,-0.170,41.809,62.500,-85.144
0.368,0.417,-0.158,53.406,47.729,-81.116
0.341,0.301,-0.182,52.246,38.452,-81.604
0.342,0.247,-0.215,41.748,33.875,-85.266
0.378,0.269,-0.255,31.921,29.541,-90.820
0.433,0.322,-0.304,24.658,23.010,-99.365
0.475,0.358,-0.353,16.663,16.541,-112.549
0.501,0.397,-0.387,8.179,11.353,-128.540
0.512,0.462,-0.406,0.305,4.578,-144.714
0.519,0.516,-0.421,-5.737,-5.798,-159.607
0.492,0.543,-0.428,-10.559,-18.066,-172.607
0.439,0.555,-0.425,-13.733,-31.433,-182.190
0.370,0.571,-0.423,-14.954,-45.593,-186.707
0.292,0.545,-0.422,-14.954,-60.303,-185.913
0.203,0.494,-0.429,-18.250,-73.425,-182.434
0.115,0.454,-0.446,-28.198,-92.590,-177.429
0.203,0.392,-0.243,-47.119,-113.464,-171.631
-0.179,0.372,-0.610,-51.941,-81.421,-170.471
0.058,0.489,-0.361,-72.876,-106.689,-170.776
0.000,1.030,-0.523,-83.069,-124.207,-160.950
-0.092,0.778,-0.522,-47.485,-131.042,-150.391
-0.129,0.997,-0.628,-48.767,-110.718,-160.400
-0.171,1.190,-0.711,-39.185,-83.008,-172.913
-0.077,1.180,-0.566,-47.058,-64.697,-190.002
-0.143,1.440,-0.600,-43.030,-61.096,-196.289
-0.141,1.365,-0.450,-39.063,-78.918,-192.810
-0.264,1.409,-0.528,-37.170,-93.567,-185.486
-0.355,1.341,-0.582,-41.260,-109.924,-176.392
-0.436,1.323,-0.672,-41.382,-117.493,-165.955
-0.568,1.243,-0.757,-45.288,-124.451,-153.564
-0.716,1.244,-0.820,-55.054,-131.836,-140.137
-0.887,1.292,-0.868,-58.472,-141.296,-124.390
-1.088,1.294,-0.882,-62.134,-150.879,-107.971
-1.403,1.216,-0.876,-66.406,-158.569,-88.562
-1.717,1.433,-0.743,-45.715,-173.645,-59.753
-2.358,1.309,-0.749,-6.531,-139.282,-32.166
-2.395,1.008,-0.390,12.390,-111.267,-22.522
-2.569,0.997,-0.334,-50.537,-72.876,-24.170
-2.470,1.120,-0.264,-58.289,-44.067,-20.752
-2.452,1.210,-0.088,-51.392,-27.283,-13.000
-2.534,1.448,-0.328,9.460,-13.794,-3.052
-2.458,1.061,-0.190,10.315,13.977,-4.883
-2.329,1.057,-0.199,6.775,34.241,-5.493
-2.269,0.839,-0.194,19.592,44.434,6.104
-2.201,0.550,-0.278,15.320,52.856,24.109
-2.215,0.629,-0.375,3.052,55.725,44.495
-2.137,0.918,-0.330,18.188,62.012,64.392
-2.116,1.087,-0.332,17.700,65.857,67.444
-3.144,4.000,-1.191,79.773,73.853,36.865
0.419,1.984,-0.776,355.957,41.321,86.304
-0.065,0.203,-0.135,303.955,-29.419,62.256
-0.091,1.029,-0.120,279.907,-75.378,41.199
0.220,0.678,0.366,238.281,-81.055,44.617
-0.560,-0.534,-0.120,43.335,-55.908,3.113
-0.041,0.337,-0.139,-83.130,-8.911,-21.667
0.287,1.278,-0.165,-88.562,-0.671,-7.019
-0.606,1.102,-0.439,-29.297,7.324,2.686
-0.009,0.607,-0.304,-42.114,7.141,-11.108
-0.184,1.718,-0.414,7.751,5.798,3.784
-0.022,0.658,-0.302,-12.878,10.620,-0.183
-0.115,1.106,-0.340,-18.616,20.020,2.014
0.126,0.926,-0.197,-19.409,13.367,8.606
0.066,0.962,-0.118,-25.635,-4.822,20.020
0.117,1.071,-0.230,-22.583,-18.677,28.137
0.126,0.898,-0.238,-28.503,-22.339,26.428
-0.103,0.921,-0.341,-28.137,-14.648,25.452
0.121,0.971,-0.337,-26.611,-5.615,22.461
-0.011,0.963,-0.319,-24.963,-2.258,21.973
-0.376,0.964,-0.385,-19.470,1.343,23.926
0.101,0.948,-0.333,-14.587,7.385,20.325
0.339,0.875,-0.238,-16.052,9.460,13.916
-0.604,0.865,-0.340,-20.264,12.695,11.841
0.060,0.963,-0.343,-13.611,18.799,8.850
0.115,0.947,-0.254,-14.282,16.663,6.653
-0.582,0.976,-0.451,-4.517,12.756,10.681
0.236,1.021,-0.288,0.427,10.315,10.864
-0.167,0.889,-0.326,2.380,8.301,13.733
0.093,1.005,-0.370,3.357,7.568,13.733
-0.082,0.947,-0.306,3.357,8.240,15.930
-0.131,0.934,-0.338,3.296,7.874,15.991
0.039,0.986,-0.298,0.000,7.385,15.503
-0.127,0.883,-0.347,1.038,8.789,18.921
-0.070,0.988,-0.320,3.479,10.742,19.348
-0.061,0.925,-0.277,5.127,8.484,21.484
-0.161,0.949,-0.353,7.751,8.484,23.315
0.068,0.985,-0.290,6.958,8.606,20.447
-0.247,0.839,-0.344,8.911,8.179,22.949
-0.219,0.912,-0.335,7.324,11.108,22.583
-0.081,0.923,-0.222,8.911,7.874,23.560
-0.185,0.873,-0.355,8.301,4.822,22.095
-0.202,0.953,-0.291,8.850,4.456,21.912
-0.219,0.848,-0.306,4.700,1.648,21.179
-0.089,0.922,-0.281,3.662,-0.732,19.165
-0.199,0.872,-0.309,2.075,-0.183,17.944

-0.360,2.516,-1.135,-16.724,41.260,219.543
-0.313,2.323,-0.954,9.644,34.302,220.520
0.140,1.754,-0.682,23.315,39.001,229.309
0.355,1.280,-0.547,31.006,53.223,245.178
-0.147,0.783,-0.229,26.184,78.552,254.395
-0.798,1.537,-0.127,1.526,123.352,187.378
0.250,2.021,-0.382,-52.795,146.362,76.233
0.794,2.011,-0.709,-52.979,151.428,0.977
0.749,1.598,-0.544,-34.912,151.001,-46.143
0.506,1.434,-0.473,-17.700,147.827,-72.205
0.417,1.180,-0.466,4.150,140.320,-70.740
0.417,0.871,-0.450,21.240,126.343,-59.509
0.482,0.745,-0.434,41.565,101.990,-47.119
0.545,0.625,-0.459,59.326,73.242,-40.466
0.591,0.474,-0.503,59.021,49.622,-41.870
0.622,0.412,-0.529,44.800,30.396,-49.011
0.647,0.421,-0.523,29.602,11.719,-58.838
0.652,0.433,-0.500,17.456,-7.751,-69.580
0.629,0.451,-0.475,7.751,-27.283,-80.200
0.573,0.482,-0.448,-0.061,-44.922,-90.637
0.511,0.514,-0.431,-5.493,-61.279,-100.403
0.438,0.517,-0.410,-10.620,-75.195,-109.985
0.345,0.540,-0.382,-15.076,-85.388,-119.080
0.259,0.579,-0.361,-18.433,-92.590,-127.319
0.180,0.601,-0.346,-21.790,-96.313,-135.681
0.114,0.624,-0.335,-26.245,-96.802,-144.104
0.062,0.664,-0.331,-30.090,-94.238,-152.100
0.034,0.696,-0.330,-34.058,-90.820,-159.729
0.024,0.719,-0.334,-38.696,-88.135,-167.542
0.032,0.759,-0.320,-43.457,-104.309,-173.950
-0.112,0.969,-0.520,-28.809,-100.403,-178.589
0.006,0.442,-0.291,-67.993,-62.744,-207.764
0.121,1.403,-0.430,-68.481,-93.201,-203.796
-0.015,0.951,-0.456,-8.667,-119.690,-185.425
-0.118,0.899,-0.555,0.916,-107.178,-185.425
-0.139,0.927,-0.618,9.277,-87.646,-184.509
-0.101,0.911,-0.612,2.136,-69.763,-186.035
-0.044,1.127,-0.623,5.127,-63.721,-185.242
0.059,1.190,-0.604,2.686,-76.050,-188.965
0.121,1.305,-0.693,-8.423,-96.069,-198.181
0.197,1.387,-0.788,-23.071,-126.648,-205.872
0.165,1.462,-0.860,-26.245,-162.598,-205.688
-0.160,1.340,-0.825,-15.259,-191.467,-193.420
-0.681,1.110,-0.779,-13.733,-194.885,-173.889
-1.109,0.990,-0.694,-26.001,-170.288,-154.724
-1.294,0.988,-0.532,-45.227,-139.526,-136.963
-1.491,1.039,-0.679,-66.711,-95.154,-124.695
-1.375,1.359,-0.394,-68.604,-86.365,-108.032
-1.670,2.009,-0.682,-22.888,-63.354,-86.731
-1.707,1.629,-0.426,-15.198,-45.105,-89.233
-1.882,2.072,-0.503,-40.222,-18.799,-98.999
-2.018,2.284,-0.485,33.508,-15.259,-88.867
-2.246,1.664,-0.459,84.534,-29.114,-74.829
-2.472,1.107,-0.462,82.397,-36.499,-64.331
-2.790,0.729,-0.491,65.247,-19.653,-49.438
-2.927,0.265,-0.440,24.353,8.118,-30.151
-2.874,0.297,-0.453,-12.878,27.100,-8.240
-2.863,0.334,-0.518,-26.672,39.185,19.165
-2.766,0.616,-0.442,-28.137,34.912,52.185
-2.703,0.865,-0.443,-9.277,34.973,83.374
-3.710,2.086,-0.701,-132.874,76.355,91.187
-2.923,3.916,-0.450,204.651,122.131,108.704
-0.342,1.218,-0.270,335.144,0.305,110.474
0.494,0.738,-0.247,292.969,-92.651,65.918
-0.113,0.905,-0.357,270.142,-131.226,52.734
0.200,0.446,0.420,176.025,-108.215,57.800
-0.308,0.241,0.090,20.081,-52.856,44.189
-0.219,0.125,-0.204,-83.618,-6.409,18.127
0.013,1.113,-0.442,-108.948,12.817,20.874
-0.022,1.464,-0.188,-19.775,10.498,42.969
-0.271,0.679,-0.261,-26.611,-3.052,21.667
-0.041,0.943,-0.472,-33.813,8.362,-0.671
0.036,0.983,-0.302,-12.573,4.883,-3.662
-0.231,0.864,-0.174,-22.644,-5.005,1.404
0.077,1.057,-0.353,-1.831,-3.235,7.080
-0.011,0.862,-0.154,-7.263,-2.930,6.531
0.051,0.983,-0.231,-13.916,-11.353,6.653
-0.081,0.921,-0.243,-24.475,-14.038,2.502
0.068,0.907,-0.263,-33.752,-15.442,-1.648
-0.044,0.915,-0.302,-38.757,-11.475,-2.747
0.005,1.050,-0.409,-27.649,-3.052,-1.709
0.196,1.064,-0.348,-17.639,4.089,1.221
-0.168,1.014,-0.370,-8.484,8.301,8.789
0.232,1.029,-0.319,-5.066,13.855,10.925
0.049,0.883,-0.245,-10.742,19.348,12.756
-0.195,0.962,-0.328,-13.184,23.010,16.174
-0.017,0.989,-0.297,-10.864,24.475,17.700
0.412,1.013,-0.270,-13.367,19.958,15.991
-0.315,0.942,-0.298,-15.625,16.479,20.752
-0.318,0.939,-0.396,-10.071,16.174,25.818
0.537,0.965,-0.260,-12.451,12.817,22.705
-0.493,0.934,-0.315,-12.939,6.287,27.283
-0.020,1.038,-0.388,-5.371,4.150,27.832
0.175,0.810,-0.198,-9.460,1.282,26.001
-0.219,0.947,-0.368,-9.827,-0.732,24.780
-0.198,0.960,-0.310,-3.601,0.366,23.987
0.150,0.911,-0.316,-1.953,-1.282,22.339
-0.058,0.934,-0.363,-1.038,-2.014,19.043
-0.223,0.922,-0.365,4.517,-1.709,19.348
-0.010,0.897,-0.348,4.333,-2.319,18.127
0.031,0.951,-0.320,7.080,-1.282,17.456
-0.438,0.901,-0.277,8.057,-2.319,21.057
0.212,1.010,-0.354,11.658,-4.150,19.592
-0.179,0.854,-0.289,8.728,-5.249,17.090
-0.364,0.918,-0.359,8.179,-5.737,18.127
-0.048,0.906,-0.316,9.521,-4.333,16.418
-0.206,0.811,-0.243,8.484,-2.930,14.709
-0.145,0.958,-0.313,6.287,-2.014,11.047
-0.248,0.893,-0.274,7.385,-1.465,10.681
-0.140,0.881,-0.314,5.432,-1.831,9.033
-0.120,0.886,-0.305,2.991,-1.404,5.981
-0.190,0.876,-0.297,1.282,-1.526,7.141
-0.087,0.891,-0.301,0.122,0.549,5.249
-0.005,0.939,-0.280,-0.977,0.671,3.052
-0.230,0.896,-0.315,-0.854,1.465,4.761
-0.069,0.928,-0.297,0.061,2.808,3.723
-0.042,0.892,-0.256,-0.427,2.991,2.441
-0.264,0.887,-0.334,-2.747,2.258,4.089
-0.348,0.904,-0.318,-1.099,1.892,6.165
0.098,0.910,-0.283,-1.709,1.770,1.892
-0.178,0.955,-0.336,-1.221,2.258,1.953
-0.704,0.872,-0.362,1.099,0.671,10.071
0.435,0.951,-0.254,0.916,1.221,6.531
-0.521,0.828,-0.338,-2.319,2.441,9.460
-0.350,0.975,-0.427,0.183,4.150,12.268
0.156,0.963,-0.214,-2.686,7.324,10.498
-0.338,0.824,-0.364,-0.732,8.789,15.015
-0.334,0.960,-0.320,-0.671,8.850,14.954
0.043,0.938,-0.262,-7.263,7.690,14.832
-0.013,0.895,-0.317,-10.864,8.545,16.113
-0.330,0.970,-0.346,-9.155,8.972,21.545
-0.212,0.943,-0.340,-5.981,10.864,29.175
0.037,1.037,-0.342,-5.920,13.245,32.715
-0.570,0.896,-0.389,-3.845,14.343,42.236
0.129,1.036,-0.338,-3.235,14.954,45.044
-0.311,0.941,-0.341,-4.944,15.869,52.979
-0.388,0.965,-0.368,-4.333,17.090,63.293
-0.189,0.983,-0.280,-5.493,20.020,69.031
-0.298,0.973,-0.379,-10.376,22.339,75.562
-0.424,0.967,-0.308,-14.954,26.001,82.764
-0.239,0.947,-0.370,-22.156,32.166,89.600
-0.368,0.991,-0.259,-25.513,43.823,96.558
-0.537,1.093,-0.403,-32.043,50.049,106.567
-0.149,0.970,-0.459,-39.795,59.082,118.469
-0.248,0.944,-0.358,-47.241,65.491,126.831
-0.488,1.062,-0.480,-59.937,72.876,141.846
-0.049,1.373,-0.466,-66.345,78.308,154.541
-0.445,1.198,-0.408,-65.247,77.698,177.673
-0.721,1.267,-0.586,-71.106,76.965,202.637
-0.360,1.711,-0.755,-76.233,78.247,219.482
-0.467,1.660,-0.719,-67.505,80.383,237.793
-0.934,1.436,-0.650,-70.190,85.205,253.296
-0.445,2.340,-1.040,-77.515,80.811,249.207
-0.783,2.341,-1.113,-52.734,71.838,254.761
-1.002,1.996,-1.127,-54.260,63.538,246.643
-0.252,2.581,-1.185,-48.035,54.932,231.689
-0.023,2.412,-0.910,-18.982,54.993,233.826
0.355,1.824,-0.609,3.784,60.974,248.474
0.378,1.164,-0.423,10.620,74.097,268.921
-0.444,0.943,-0.326,-2.197,103.699,252.808
0.111,2.264,-0.258,-38.513,136.292,150.574
0.979,2.280,-0.595,-62.378,131.348,44.922
1.269,2.213,-0.771,-16.724,119.202,-10.193
0.835,1.532,-0.503,5.249,111.267,-46.692
0.593,1.374,-0.469,25.696,102.722,-61.035
0.492,1.012,-0.428,52.368,91.736,-59.448
0.474,0.700,-0.361,64.819,77.698,-59.937
0.491,0.588,-0.339,78.918,55.786,-61.218
0.467,0.424,-0.352,85.327,36.926,-65.430
0.429,0.284,-0.377,70.984,28.687,-74.890
0.429,0.262,-0.387,51.575,25.635,-85.999
0.459,0.279,-0.385,37.415,21.057,-96.619
0.480,0.294,-0.380,26.672,14.404,-107.239
0.474,0.342,-0.374,15.930,8.423,-120.056
0.451,0.414,-0.359,5.066,3.296,-134.766
0.406,0.507,-0.340,-3.174,-1.221,-150.085
0.353,0.586,-0.331,-6.287,-5.920,-163.452
0.281,0.598,-0.330,-6.348,-11.963,-173.767
0.210,0.585,-0.346,-6.287,-17.090,-180.481
0.161,0.565,-0.362,-7.446,-21.423,-184.204
0.132,0.550,-0.386,-11.292,-25.269,-186.340
0.119,0.561,-0.414,-17.944,-29.175,-188.904
0.114,0.591,-0.441,-27.832,-32.837,-192.749
0.118,0.634,-0.457,-38.635,-37.720,-196.655
0.108,0.677,-0.468,-47.791,-44.678,-199.341
0.086,0.731,-0.486,-56.396,-58.044,-200.806
0.279,0.795,-0.259,-59.753,-98.450,-197.632
-0.219,0.707,-0.764,-85.876,-59.875,-219.604
0.257,1.065,-0.403,-125.244,-93.567,-221.252
-0.038,1.312,-0.587,-26.672,-122.009,-182.068
-0.233,1.047,-0.639,-12.024,-101.868,-174.866
-0.259,1.285,-0.702,-3.418,-74.646,-174.438
-0.158,1.308,-0.677,-15.076,-55.664,-182.251
-0.036,1.505,-0.685,-15.869,-67.993,-184.326
-0.134,1.383,-0.642,-23.193,-94.971,-182.251
-0.356,1.398,-0.581,-34.668,-119.507,-169.739
-0.707,1.327,-0.530,-37.842,-132.996,-148.560
-1.024,1.343,-0.480,-39.917,-134.399,-126.221
-1.238,1.366,-0.356,-30.212,-135.071,-102.905
-1.479,1.413,-0.316,-16.907,-131.042,-82.703
-1.967,1.254,-0.426,-14.099,-104.675,-72.876
-1.785,1.402,-0.119,-9.644,-91.797,-64.392
-2.220,1.216,-0.354,-10.559,-63.354,-60.120
-1.990,2.058,-0.377,23.560,-40.527,-58.838
-2.281,1.167,-0.160,-12.207,-33.691,-71.106
-2.485,1.479,-0.262,-49.194,-7.690,-82.031
-2.457,1.565,-0.074,-34.424,5.493,-76.477
-2.643,1.456,-0.068,-3.052,13.672,-58.716
-2.653,1.191,-0.014,35.583,15.503,-31.128
-2.667,0.948,-0.059,62.439,17.273,0.244
-2.647,0.739,-0.180,62.622,28.992,24.536
-2.527,0.831,-0.211,62.622,34.973,45.471
-2.393,0.824,-0.243,68.359,36.621,63.843
-2.281,0.911,-0.223,74.341,31.799,79.468
-2.117,1.371,-0.372,44.800,23.193,64.453
-0.338,2.337,-0.834,174.927,13.733,68.909
-0.080,0.748,-0.230,224.304,-53.711,69.885
0.375,0.883,-0.180,162.170,-95.093,53.650
-0.305,1.096,0.182,176.697,-71.167,59.387
-0.509,-0.349,-0.155,36.987,-30.701,15.015
-0.464,0.480,-0.312,-49.927,15.869,-16.174
0.232,1.002,0.053,-63.965,13.428,-1.770
0.062,1.147,-0.158,-42.847,-16.907,6.104
-0.074,0.821,-0.325,-38.574,-19.714,-3.967
-0.170,1.071,-0.451,-39.734,-11.475,-13.977
-0.102,0.973,-0.314,-23.132,-5.371,-7.874
0.107,1.057,-0.271,-18.066,-8.362,-0.854
-0.069,1.031,-0.313,-6.775,-0.488,6.714
0.178,0.953,-0.203,-16.541,0.244,7.324
-0.197,0.933,-0.179,-32.410,4.211,10.071
0.014,0.944,-0.323,-36.499,11.230,8.240
-0.016,0.930,-0.214,-37.109,9.766,8.179
0.042,0.947,-0.331,-33.508,7.080,9.399
-0.189,0.978,-0.353,-27.466,10.803,10.193
0.056,0.986,-0.393,-19.653,13.184,10.132
-0.039,0.977,-0.335,-15.625,15.076,10.071
-0.144,0.967,-0.334,-9.583,19.287,10.193
0.270,0.913,-0.311,-9.033,21.545,7.629

-0.424,0.853,-0.370,-6.775,20.508,58.533
-0.301,1.072,-0.374,-6.287,29.358,65.735
-0.031,1.060,-0.289,-11.841,32.410,72.021
-0.048,1.010,-0.350,-11.108,33.997,80.872
-0.397,0.977,-0.313,-15.076,35.461,88.562
-0.301,0.995,-0.359,-17.334,38.025,98.816
-0.098,1.044,-0.291,-22.156,42.480,104.004
-0.410,0.899,-0.394,-27.954,46.814,113.464
-0.059,1.004,-0.391,-30.334,55.603,119.202
-0.475,0.893,-0.343,-37.537,60.059,127.747
-0.365,1.170,-0.444,-44.556,63.660,140.808
-0.407,1.048,-0.328,-45.959,69.458,153.931
-0.318,1.203,-0.502,-50.964,72.632,165.771
-0.613,1.096,-0.487,-51.331,78.125,181.641
-0.331,1.453,-0.617,-60.303,81.116,192.749
-0.519,1.349,-0.541,-57.800,82.825,213.745
-0.662,1.395,-0.597,-67.627,78.857,225.708
-0.431,1.650,-0.774,-79.346,73.914,234.314
-0.674,1.511,-0.832,-82.153,69.519,242.065
-0.687,1.507,-1.043,-95.703,61.157,242.126
-0.640,1.651,-1.218,-118.774,54.871,230.408
-0.764,1.609,-1.090,-137.146,65.125,220.337
-0.670,2.011,-0.896,-138.977,80.627,212.952
-0.087,2.204,-0.735,-125.305,89.905,212.463
0.341,2.342,-0.581,-98.083,97.290,215.393
0.136,2.024,-0.390,-55.115,111.755,228.638
0.102,1.816,-0.505,-23.376,127.014,201.965
1.006,2.973,-0.548,-32.104,118.652,89.172
1.405,2.665,-0.650,-2.136,89.417,-3.845
1.123,2.020,-0.745,41.138,65.979,-52.429
0.592,1.377,-0.547,62.744,51.270,-73.730
0.235,1.078,-0.459,80.933,38.757,-74.280
0.085,0.678,-0.413,98.022,31.189,-63.110
0.081,0.307,-0.346,94.910,28.259,-57.129
0.125,0.234,-0.371,88.928,26.184,-56.763
0.202,0.211,-0.427,79.956,28.076,-61.523
0.298,0.232,-0.453,60.791,33.203,-72.388
0.391,0.344,-0.474,42.908,36.621,-85.693
0.477,0.441,-0.474,33.325,33.752,-98.938
0.528,0.512,-0.465,30.579,23.315,-110.718
0.516,0.546,-0.471,31.799,9.338,-120.789
0.486,0.527,-0.482,31.982,-5.981,-130.432
0.419,0.467,-0.482,28.625,-20.813,-138.794
0.339,0.427,-0.482,23.132,-34.180,-145.020
0.271,0.415,-0.490,17.761,-46.082,-148.193
0.236,0.408,-0.500,10.498,-56.946,-149.841
0.220,0.421,-0.514,0.427,-66.406,-152.771
0.186,0.464,-0.517,-11.719,-73.364,-157.410
0.143,0.551,-0.509,-22.339,-78.003,-161.926
0.117,0.628,-0.496,-30.945,-82.520,-165.588
0.074,0.704,-0.484,-37.598,-87.585,-169.434
0.028,0.773,-0.480,-42.175,-92.773,-174.011
-0.042,0.832,-0.490,-44.922,-97.046,-179.504
-0.121,0.889,-0.521,-43.701,-112.854,-181.396
-0.301,1.101,-0.669,-35.217,-125.610,-184.448
-0.207,-0.131,-0.318,-123.901,-91.553,-219.727
-0.037,1.846,-0.639,-46.570,-132.019,-185.303
-0.436,1.184,-0.800,24.902,-102.661,-163.818
-0.410,1.190,-0.706,31.250,-56.763,-170.898
-0.386,1.186,-0.669,28.381,-28.687,-181.335
-0.240,1.326,-0.598,25.024,-36.743,-183.594
-0.270,1.337,-0.652,26.672,-63.354,-174.805
-0.387,1.224,-0.653,16.968,-76.050,-161.316
-0.520,1.330,-0.634,15.747,-92.896,-140.686
-0.775,1.468,-0.702,24.292,-101.501,-123.169
-0.925,1.385,-0.742,44.800,-114.258,-110.718
-1.034,1.119,-0.769,52.490,-125.916,-107.178
-1.170,0.866,-0.820,29.236,-119.995,-113.464
-1.338,0.773,-0.667,-10.742,-112.976,-118.347
-1.813,0.974,-0.899,-29.236,-97.717,-109.985
-1.847,1.523,-0.666,7.690,-88.257,-87.708
-2.520,0.620,-0.578,-39.612,-62.988,-72.266
-2.724,0.925,-0.409,-62.256,-39.124,-50.049
-2.973,1.068,-0.386,-46.936,-16.785,-24.841
-2.970,0.962,-0.277,-35.828,-6.470,-4.333
-2.935,0.920,-0.237,-29.541,-3.418,14.404
-2.959,0.751,-0.279,-30.457,6.409,30.945
-2.888,0.680,-0.261,-28.625,16.907,49.255
-2.828,0.560,-0.260,-28.992,26.367,70.190
-2.870,0.992,-0.232,-22.766,41.382,85.876
-2.579,1.363,0.057,30.151,57.678,100.159
-2.111,2.237,0.233,53.772,53.528,55.725
0.800,3.814,-0.247,303.772,12.817,74.280
-0.352,0.215,-0.284,379.333,-48.950,81.482
0.380,0.560,0.207,253.113,-97.656,53.650
-0.076,0.691,0.269,174.866,-76.050,48.889
-1.349,-0.721,-0.406,-2.502,-10.010,-7.568
0.483,0.383,-0.283,-145.142,13.367,-43.274
-0.112,1.921,-0.415,-52.185,3.601,-8.789
-0.544,0.667,-0.233,-13.611,-10.376,1.526
0.365,1.416,-0.526,-5.798,-18.188,-0.122
-0.610,0.928,-0.312,14.648,7.629,10.498
0.174,1.112,-0.338,-7.080,-0.671,9.705
-0.012,0.896,-0.112,-10.986,1.282,19.348
0.030,0.859,-0.125,-45.288,5.005,19.714
0.122,1.029,-0.210,-51.331,7.996,22.522
-0.011,0.922,-0.273,-53.711,5.432,26.184
-0.047,1.048,-0.385,-48.828,7.446,28.137
-0.057,0.917,-0.366,-42.358,11.230,29.419
0.123,0.962,-0.373,-40.039,12.573,25.940
-0.384,0.985,-0.401,-27.161,15.686,25.330
0.233,0.954,-0.339,-16.968,15.625,18.555
-0.038,0.952,-0.257,-14.893,9.705,17.761
-0.361,0.851,-0.374,-12.573,12.085,18.188
0.100,0.959,-0.308,-15.442,11.292,12.329
-0.181,0.930,-0.406,-9.216,7.935,11.780
-0.071,1.007,-0.420,-0.549,7.507,9.155
-0.257,0.977,-0.391,10.864,5.859,12.207
0.041,0.952,-0.360,18.127,4.211,12.146
-0.175,0.923,-0.347,18.616,4.211,12.207
-0.134,0.933,-0.353,17.456,5.066,13.367
0.125,0.992,-0.314,15.869,2.869,12.695
-0.182,0.885,-0.330,14.893,-0.122,14.465
-0.172,0.977,-0.309,12.512,0.549,16.357
0.154,0.965,-0.270,12.756,-0.854,16.785
-0.230,0.822,-0.316,12.390,-4.639,19.104
-0.455,0.943,-0.331,9.033,-2.686,21.851
0.057,0.940,-0.260,7.690,-1.160,21.606
0.195,0.920,-0.312,6.042,-2.625,16.724
-0.661,0.878,-0.363,9.216,-2.319,21.912
-0.135,0.900,-0.267,5.188,1.587,22.034
0.084,0.958,-0.231,6.348,-2.258,16.724
-0.711,0.758,-0.401,8.972,-2.625,18.860
-0.030,1.005,-0.277,3.967,-0.732,15.747
-0.133,0.824,-0.256,6.714,-2.930,14.648
-0.170,0.879,-0.404,7.996,-2.075,10.681
-0.296,0.928,-0.290,11.047,-0.427,11.353
-0.201,0.887,-0.301,13.000,-2.319,9.155
0.008,0.913,-0.339,11.658,-1.587,3.906
-0.321,0.830,-0.289,15.320,-0.854,5.371
-0.188,0.868,-0.290,10.254,-1.465,0.732
-0.073,0.924,-0.280,9.399,-1.465,-1.221
-0.408,0.802,-0.306,7.996,-0.305,-0.305
0.047,1.037,-0.253,6.897,-0.610,-5.005
-0.319,0.833,-0.320,8.911,-1.160,-2.808
-0.344,0.891,-0.286,5.920,0.122,-1.892
-0.129,0.971,-0.243,4.822,-1.404,-0.916
-0.273,0.822,-0.354,2.197,-2.930,-0.488
-0.257,1.016,-0.294,1.831,-1.648,1.282
-0.219,0.850,-0.316,3.784,-0.732,6.042
-0.129,0.969,-0.300,4.395,-0.610,5.981
-0.323,0.904,-0.306,3.418,0.793,9.094
-0.095,0.902,-0.270,-0.793,6.042,7.812
-0.086,0.980,-0.275,-0.366,8.423,8.301
-0.323,0.865,-0.316,0.305,7.629,11.902
0.073,0.939,-0.205,-8.362,6.165,9.583
-0.236,0.919,-0.273,-11.719,5.920,12.451
-0.556,0.950,-0.355,-13.489,5.371,19.592
-0.090,1.083,-0.305,-9.521,2.930,26.733
0.181,1.064,-0.362,-0.854,2.991,32.654
-0.771,0.936,-0.472,4.822,8.850,45.471
-0.312,1.044,-0.379,3.357,21.851,52.673
-0.005,1.070,-0.290,4.211,25.818,55.237
-0.878,0.862,-0.475,1.404,28.564,66.956
0.246,1.087,-0.300,-3.723,32.654,70.435
-0.588,0.831,-0.210,-2.258,38.330,77.942
-0.252,1.066,-0.407,-5.737,44.373,82.703
-0.152,0.994,-0.183,-9.766,45.532,87.402
-0.124,0.952,-0.341,-10.742,45.227,96.375
-0.417,0.891,-0.302,-15.137,49.438,102.173
-0.210,0.937,-0.465,-19.531,52.063,111.572
-0.135,1.002,-0.480,-21.484,57.373,119.629
-0.511,0.936,-0.405,-21.790,67.322,134.644
-0.333,1.302,-0.504,-29.297,76.965,142.334
-0.627,1.113,-0.379,-25.818,89.783,162.537
-0.465,1.359,-0.516,-36.194,93.384,174.744
-0.576,1.427,-0.421,-34.546,95.520,192.810
-0.468,1.481,-0.576,-42.603,90.698,205.933
-0.818,1.622,-0.609,-48.706,85.083,219.543
-0.637,1.727,-0.777,-59.143,76.355,224.182
-0.614,1.930,-0.906,-53.467,67.749,226.013
-0.756,1.912,-0.992,-58.716,57.190,213.562
-0.609,2.252,-1.010,-58.655,50.293,200.134
-0.423,2.228,-0.853,-39.795,47.852,198.975
-0.010,1.989,-0.601,-16.602,51.697,208.984
0.471,1.468,-0.505,-2.197,59.998,225.952
-0.043,1.119,-0.251,-3.906,83.069,227.905
-0.691,1.596,-0.008,-4.456,129.272,187.439
0.130,1.691,-0.252,-72.937,157.959,75.378
0.854,2.137,-0.648,-75.745,166.260,-1.465
0.806,1.649,-0.417,-61.829,164.001,-48.767
0.579,1.582,-0.444,-39.246,159.973,-72.510
0.516,1.270,-0.419,-14.404,152.222,-69.031
0.483,0.996,-0.410,-1.404,141.785,-61.279
0.561,0.889,-0.402,21.790,119.324,-52.185
0.612,0.729,-0.410,41.870,88.989,-45.959
0.628,0.610,-0.460,45.410,61.462,-46.570
0.649,0.534,-0.497,36.560,39.185,-53.467
0.673,0.504,-0.501,24.719,17.700,-63.354
0.680,0.501,-0.490,15.259,-4.883,-74.158
0.660,0.509,-0.477,8.423,-27.100,-84.961
0.608,0.511,-0.464,0.549,-46.570,-96.252
0.550,0.532,-0.445,-8.362,-62.378,-108.398
0.483,0.566,-0.422,-16.541,-75.134,-120.117
0.394,0.608,-0.387,-21.362,-84.473,-130.371
0.306,0.648,-0.352,-23.193,-90.698,-139.160
0.219,0.670,-0.331,-22.827,-94.177,-146.667
0.136,0.660,-0.318,-22.705,-94.788,-152.832
0.064,0.639,-0.322,-25.818,-97.168,-157.898
0.187,0.550,-0.108,-35.889,-115.540,-161.499
-0.146,0.430,-0.495,-53.650,-82.642,-174.072
0.233,0.976,-0.257,-43.152,-95.398,-177.490
-0.012,0.169,-0.268,-66.772,-113.464,-189.453
0.120,1.214,-0.408,-36.255,-124.573,-186.829
-0.053,0.937,-0.461,-22.217,-112.549,-194.214
-0.134,1.115,-0.531,-6.714,-84.351,-203.247
-0.135,1.048,-0.473,1.526,-61.096,-210.999
-0.130,1.029,-0.477,3.052,-46.936,-215.576
-0.099,1.012,-0.422,6.104,-50.415,-213.440
-0.073,1.021,-0.423,2.930,-59.021,-210.815
-0.108,1.045,-0.459,-2.747,-66.467,-209.778
-0.144,1.125,-0.518,-7.507,-70.129,-209.473
-0.167,1.253,-0.658,-9.705,-67.566,-209.290
-0.048,1.336,-0.717,-16.113,-73.730,-208.191
-0.093,1.372,-0.805,-26.978,-83.374,-203.979
-0.239,1.412,-0.761,-31.555,-89.966,-192.505
-0.502,1.361,-0.665,-31.555,-102.234,-171.021
-0.959,1.188,-0.793,-46.448,-92.957,-149.109
-0.979,1.487,-0.431,-35.645,-120.239,-118.591
-1.537,1.563,-0.609,-8.728,-109.497,-92.896
-1.988,1.589,-0.583,16.052,-67.200,-69.641
-2.080,1.280,-0.330,35.461,-55.969,-60.059
-2.385,1.313,-0.453,-32.654,-24.231,-66.284
-2.404,1.396,-0.375,-50.354,2.502,-68.054
-2.558,1.229,-0.468,-63.171,8.545,-64.636
-2.577,1.192,-0.456,-59.204,7.019,-53.040
-2.736,0.877,-0.437,-62.927,20.142,-37.659
-2.640,0.837,-0.283,-67.505,25.085,-15.503
-2.598,0.875,-0.265,-39.795,24.963,17.761
-2.409,0.685,-0.172,-22.583,18.433,52.002
-2.305,0.521,-0.273,-35.522,11.963,78.918
-2.221,1.037,-0.229,-47.119,7.324,97.168
-2.043,1.538,-0.089,-9.460,8.667,113.098
-1.992,2.131,0.132,6.897,21.118,106.812
-2.525,4.000,0.753,177.734,57.922,97.229
0.628,1.164,-0.138,386.719,-20.386,140.930
0.106,0.399,-0.156,277.771,-95.520,102.600
0.091,0.912,-0.020,254.150,-107.239,84.412

-0.117,1.042,-0.297,-2.014,6.470,10.437
-0.203,0.857,-0.287,-1.343,5.371,14.893
0.014,0.854,-0.274,-9.827,7.629,12.451
-0.450,0.945,-0.327,-10.559,5.371,18.494
0.099,1.044,-0.362,-10.071,4.395,22.888
-0.124,1.063,-0.397,-1.648,5.066,30.762
-0.596,0.927,-0.465,1.587,6.531,42.175
-0.015,1.111,-0.318,2.075,11.230,49.561
-0.340,0.911,-0.377,1.343,13.672,57.556
-0.228,1.039,-0.378,-3.784,20.996,62.134
-0.356,0.997,-0.349,-6.592,27.161,70.374
-0.123,0.875,-0.363,-8.240,31.677,77.637
-0.349,0.974,-0.305,-16.174,40.344,81.055
-0.231,1.046,-0.344,-17.944,48.401,89.966
-0.108,0.949,-0.288,-21.118,54.565,94.849
-0.582,0.950,-0.413,-29.541,55.603,104.980
0.023,0.993,-0.427,-38.513,60.852,116.150
-0.279,0.854,-0.418,-48.035,65.186,127.502
-0.670,1.018,-0.527,-58.655,72.266,147.827
-0.193,1.384,-0.513,-63.904,84.229,166.077
-0.213,1.545,-0.445,-49.622,94.055,187.805
-1.014,1.237,-0.512,-44.556,100.220,218.445
-0.140,2.036,-0.872,-61.157,100.159,233.337
-0.845,1.739,-0.755,-36.072,103.821,262.024
-0.733,1.563,-0.835,-50.720,102.844,268.066
-0.490,2.374,-1.043,-52.124,96.680,262.024
-0.512,2.050,-0.996,-30.640,85.815,260.132
-0.708,2.409,-1.101,-23.132,69.580,239.685
-0.327,2.425,-0.958,-4.456,56.946,231.873
0.216,2.287,-0.762,18.311,49.866,230.469
0.491,1.865,-0.584,46.631,51.941,242.249
0.472,1.157,-0.321,62.134,61.829,261.353
-0.262,0.904,-0.271,47.913,84.839,236.633
0.386,2.005,-0.292,0.793,107.971,126.465
1.050,1.965,-0.604,-17.334,104.675,21.912
1.148,1.661,-0.568,5.432,99.304,-40.100
0.708,1.267,-0.404,13.367,93.323,-79.529
0.483,1.080,-0.366,29.480,82.703,-88.501
0.343,0.730,-0.323,44.250,71.106,-79.163
0.326,0.495,-0.262,52.368,56.946,-65.552
0.361,0.379,-0.253,63.965,40.283,-53.894
0.394,0.238,-0.281,62.378,28.748,-49.866
0.425,0.189,-0.322,43.274,24.658,-54.504
0.480,0.242,-0.344,22.217,23.315,-64.514
0.545,0.326,-0.351,6.165,18.616,-76.538
0.596,0.436,-0.357,-4.578,9.521,-89.600
0.621,0.552,-0.373,-10.742,-2.258,-103.882
0.626,0.601,-0.371,-15.808,-15.198,-119.141
0.589,0.610,-0.344,-21.606,-28.503,-133.118
0.520,0.618,-0.305,-26.367,-42.297,-143.311
0.435,0.625,-0.267,-29.480,-55.664,-149.231
0.345,0.629,-0.227,-34.180,-67.871,-153.503
0.263,0.659,-0.199,-40.405,-77.759,-156.860
0.199,0.711,-0.198,-46.997,-83.923,-160.156
0.165,0.753,-0.185,-57.373,-88.867,-164.307
0.475,0.771,0.056,-76.416,-122.314,-169.128
-0.228,1.046,-0.568,-70.190,-102.783,-175.171
0.274,0.959,0.037,-92.285,-108.765,-192.322
0.198,1.469,-0.200,-104.187,-135.132,-193.848
-0.023,1.316,-0.246,-40.771,-145.508,-179.871
-0.208,1.220,-0.347,-33.203,-114.014,-184.998
-0.247,1.426,-0.363,-14.832,-76.477,-185.974
-0.298,1.410,-0.354,-3.967,-52.429,-185.242
-0.117,1.547,-0.194,16.602,-57.617,-177.673
-0.125,1.583,-0.232,34.973,-84.045,-169.373
-0.191,1.483,-0.386,34.912,-105.286,-166.565
-0.274,1.463,-0.526,31.372,-117.981,-164.429
-0.510,1.367,-0.617,25.818,-132.141,-157.959
-0.822,1.260,-0.608,19.592,-138.672,-144.897
-1.174,1.288,-0.640,26.978,-137.268,-121.338
-1.479,1.106,-0.567,34.302,-135.986,-92.773
-1.779,1.155,-0.618,39.612,-126.221,-66.162
-2.148,0.948,-0.693,37.903,-102.234,-48.218
-1.692,1.083,-0.552,47.913,-98.267,-35.828
-1.990,1.156,-0.870,63.293,-115.234,-23.193
-2.170,0.759,-1.054,60.425,-104.553,-14.954
-2.205,0.476,-0.915,70.068,-116.821,-5.310
-2.386,0.411,-1.042,14.465,-101.257,1.343
-2.444,0.490,-0.962,5.310,-80.139,18.799
-2.394,0.364,-0.863,-5.920,-70.068,39.307
-2.289,0.526,-0.800,0.000,-70.435,62.256
-2.237,0.505,-0.816,18.616,-60.059,81.543
-2.232,0.274,-0.821,5.066,-41.565,91.248
-2.046,0.306,-0.663,-10.681,-31.006,98.389
-2.145,0.509,-0.586,-11.536,-22.644,107.544
-2.135,0.460,-0.338,2.136,-18.860,119.934
-2.291,0.418,-0.307,0.793,-6.775,109.619
-2.456,3.031,-1.417,6.226,-2.930,18.799
-0.199,1.377,0.313,104.919,7.263,22.705
-0.566,0.416,-0.456,57.373,-9.216,-14.709
0.063,1.650,-0.576,122.986,-12.085,-9.033
-0.287,-0.046,-0.464,49.377,0.916,-21.240
-0.056,0.932,-0.343,-18.860,18.982,-30.090
-0.077,1.172,-0.372,27.771,12.939,-15.686
-0.151,0.901,-0.217,45.349,12.207,-16.052
-0.001,0.873,-0.007,20.264,-4.517,-20.447
0.022,0.924,0.026,-6.775,-14.526,-27.527
-0.317,0.660,-0.164,-52.063,-14.404,-30.701
0.008,1.054,-0.103,-62.073,-19.714,-21.240
-0.023,1.088,-0.314,-55.908,-22.156,-9.521
-0.128,1.104,-0.511,-32.288,-20.264,3.479
-0.171,1.105,-0.511,-15.991,-18.311,12.085
-0.118,1.018,-0.533,-7.812,-13.855,16.907
-0.120,1.037,-0.487,-0.061,-0.671,21.606
-0.226,1.024,-0.392,3.418,11.414,26.062
0.161,1.003,-0.183,6.287,18.066,28.809
-0.141,0.862,-0.296,9.705,21.362,29.114
-0.224,0.785,-0.245,-1.648,27.405,22.644
0.198,0.914,-0.212,-9.705,27.771,15.137
-0.234,0.889,-0.444,-7.812,25.757,12.268
-0.432,0.949,-0.432,0.488,25.879,14.832
-0.016,1.060,-0.309,12.268,30.151,15.137
0.201,1.069,-0.288,24.780,23.926,13.245
-0.626,0.868,-0.453,27.161,16.235,18.982
-0.143,0.997,-0.236,23.437,22.644,21.606
0.238,1.034,-0.163,28.564,10.559,21.851
-0.691,0.672,-0.445,17.212,-0.671,21.484
0.057,1.151,-0.132,15.320,3.906,20.569
-0.140,0.815,-0.228,22.949,-1.709,23.193
-0.168,0.891,-0.358,12.756,-3.906,15.076
-0.290,0.914,-0.285,19.470,-1.709,17.395
-0.146,0.846,-0.219,19.226,-3.723,14.465
-0.021,0.959,-0.289,15.503,-5.798,8.240
-0.283,0.850,-0.287,19.287,-5.676,9.460
-0.220,0.913,-0.263,16.846,-5.615,6.409
-0.035,0.983,-0.201,19.958,-5.310,5.310
-0.505,0.735,-0.323,17.334,-5.859,6.653
0.094,1.037,-0.132,17.334,-2.319,1.587
-0.238,0.786,-0.286,13.184,-5.798,2.441
-0.445,0.853,-0.286,9.521,-5.676,1.953
-0.107,0.970,-0.176,9.644,-5.127,2.136
-0.311,0.759,-0.291,5.432,-6.165,1.099
-0.221,0.960,-0.244,5.127,-5.005,-1.282
-0.379,0.805,-0.296,3.235,-4.944,1.221
-0.108,0.940,-0.246,1.953,-4.883,-1.221
-0.267,0.904,-0.297,-0.122,-5.798,0.671
-0.309,0.879,-0.284,1.770,-4.944,1.526
0.055,0.987,-0.167,1.404,-4.517,-0.366
-0.337,0.848,-0.328,2.441,-7.080,1.282
-0.208,0.905,-0.210,0.488,-3.540,-1.343
0.015,0.943,-0.154,-2.625,-3.845,-2.319
-0.310,0.833,-0.306,-5.005,-6.714,-0.854
-0.487,0.892,-0.313,-10.498,-4.883,1.465
0.068,1.023,-0.175,-10.437,-1.709,1.953
-0.123,0.921,-0.286,-11.963,-5.859,4.211
-0.820,0.839,-0.448,-13.611,-4.578,11.108
0.380,1.145,-0.077,-11.108,4.089,12.451
-0.439,0.739,-0.410,-17.090,-5.615,20.935
-0.538,1.122,-0.443,-16.663,0.488,24.658
0.184,1.123,-0.188,-12.695,5.676,33.630
-0.443,0.791,-0.472,-13.611,2.930,41.443
-0.378,1.092,-0.355,-8.911,12.695,47.791
-0.206,1.095,-0.293,-3.418,17.090,59.143
-0.049,0.987,-0.292,-7.812,22.339,61.523
-0.454,1.030,-0.370,-8.240,27.649,70.740
-0.359,0.928,-0.281,-14.648,34.302,77.576
-0.140,1.028,-0.237,-22.522,37.964,82.642
-0.356,0.807,-0.400,-30.640,39.917,93.079
-0.110,1.016,-0.258,-38.452,48.950,96.252
-0.618,0.862,-0.338,-43.884,53.223,111.633
-0.297,1.186,-0.358,-56.335,61.401,121.338
-0.398,0.941,-0.332,-61.768,68.359,141.357
-0.261,1.131,-0.430,-77.393,75.073,157.410
-0.572,1.118,-0.455,-87.708,81.238,177.124
-0.431,1.533,-0.589,-100.830,83.984,200.806
-0.629,1.376,-0.692,-108.887,86.121,225.525
-0.798,1.656,-0.746,-121.338,88.074,241.516
-0.551,1.740,-0.918,-138.184,85.938,254.822
-0.647,1.601,-1.180,-154.480,78.247,258.484
-0.789,1.581,-1.196,-183.655,74.707,249.512
-0.689,2.177,-1.231,-205.627,79.285,233.032
-0.506,2.342,-0.996,-204.407,86.548,224.487
-0.364,2.474,-0.772,-178.040,98.083,229.553
0.099,2.186,-0.473,-150.024,111.328,242.310
0.405,1.696,-0.192,-126.648,130.554,253.479
-0.479,1.208,-0.077,-118.530,165.833,232.910
0.005,2.510,-0.335,-120.789,190.857,138.855
1.029,2.296,-0.283,-111.694,178.223,51.880
1.005,2.201,-0.419,-93.262,165.100,-24.902
0.998,2.130,-0.433,-37.781,150.696,-76.416
0.811,1.532,-0.269,-17.334,132.080,-115.112
0.560,1.183,-0.245,-2.747,117.371,-136.780
0.449,0.864,-0.237,18.433,99.365,-142.822
0.404,0.605,-0.211,32.715,75.928,-140.686
0.345,0.439,-0.218,40.039,55.298,-136.475
0.325,0.342,-0.256,37.720,41.626,-133.728
0.358,0.311,-0.287,31.006,30.823,-132.202
0.399,0.308,-0.314,26.062,18.555,-130.005
0.435,0.308,-0.352,22.278,3.845,-126.831
0.464,0.301,-0.384,16.785,-11.536,-124.329
0.478,0.323,-0.414,8.667,-27.466,-124.390
0.462,0.394,-0.432,-0.671,-43.030,-127.747
0.431,0.511,-0.447,-7.202,-59.021,-133.301
0.398,0.633,-0.468,-10.925,-75.806,-140.442
0.368,0.734,-0.487,-14.343,-93.262,-149.536
0.318,0.818,-0.499,-17.639,-109.863,-160.034
0.243,0.896,-0.500,-20.081,-124.084,-170.837
0.132,0.944,-0.481,-22.217,-135.437,-180.725
0.001,0.996,-0.468,-21.301,-143.188,-187.500
-0.125,1.003,-0.457,-14.343,-148.987,-188.232
0.413,1.111,0.047,14.954,-197.205,-176.208
-1.022,-0.442,-0.922,-43.579,-136.475,-200.745
0.039,1.065,-0.238,-56.946,-140.442,-192.627
-0.366,1.212,-0.667,23.499,-146.790,-156.494
-0.505,0.974,-0.734,43.945,-97.046,-152.344
-0.363,1.008,-0.600,45.715,-67.017,-158.325
-0.209,1.164,-0.511,37.415,-75.745,-164.001
-0.183,1.327,-0.571,38.330,-107.300,-164.001
-0.297,1.356,-0.683,35.828,-121.399,-167.725
-0.459,1.382,-0.772,25.024,-128.662,-172.424
-0.624,1.422,-0.808,25.269,-128.723,-171.143
-0.831,1.365,-0.833,27.954,-126.953,-164.917
-1.027,1.306,-0.817,33.264,-130.127,-154.236
-1.466,1.095,-1.016,36.743,-110.657,-143.311
-1.292,1.119,-0.558,53.345,-122.986,-121.338
-1.929,0.999,-0.798,68.054,-111.084,-99.182
-2.176,0.772,-0.726,38.879,-55.542,-89.661
-1.851,1.572,-0.521,90.332,-60.425,-68.237
-2.209,0.927,-0.476,63.721,-49.255,-62.805
-2.223,1.115,-0.516,58.167,-20.142,-59.937
-2.180,0.935,-0.404,58.533,-6.897,-52.979
-2.162,0.748,-0.434,59.326,-2.197,-42.542
-2.232,0.744,-0.579,68.848,10.803,-24.780
-2.165,0.374,-0.725,36.072,36.926,-15.686
-1.910,0.259,-0.638,-13.855,46.753,-10.315
-1.679,0.542,-0.591,-19.165,19.653,14.832
-1.621,0.506,-0.627,-14.832,-10.864,44.250
-1.593,0.469,-0.644,-28.687,-28.259,64.148
-1.758,0.872,-0.550,-16.174,-31.555,81.909
-1.777,0.763,-0.350,0.244,-24.536,95.337
-1.982,1.137,-0.231,25.513,-2.808,105.835
-2.038,1.573,-0.053,5.615,-14.587,71.899
-0.885,2.926,-0.987,158.569,20.264,65.247
-0.302,1.099,-0.090,263.367,-40.344,67.688
0.318,0.082,0.178,128.357,-95.642,31.311
-0.580,0.646,-0.362,85.571,-88.257,10.803
-0.649,0.177,-0.349,-17.456,-30.273,-8.545
0.362,0.685,-0.177,-101.685,-15.442,-20.203

-0.151,1.028,-0.351,-11.414,40.222,77.393
-0.274,1.004,-0.410,-20.874,54.993,93.384
-0.554,0.933,-0.394,-25.513,58.960,105.652
-0.318,1.108,-0.374,-29.480,61.279,117.432
-0.279,0.862,-0.391,-35.400,65.369,132.446
-0.365,1.064,-0.491,-48.645,70.801,141.785
-0.333,1.175,-0.487,-54.016,75.745,158.752
-0.615,1.184,-0.514,-66.467,80.017,172.974
-0.392,1.629,-0.601,-76.050,84.412,187.927
-0.642,1.496,-0.556,-76.233,85.754,207.825
-0.915,1.534,-0.579,-80.566,89.844,223.206
-0.499,1.832,-0.728,-86.609,86.548,227.966
-0.230,1.982,-0.950,-81.543,72.876,228.638
-1.046,1.637,-0.977,-81.116,64.026,236.755
-0.838,1.913,-1.015,-91.187,57.861,230.469
-0.305,2.440,-1.115,-84.351,51.880,213.013
-0.486,2.353,-0.854,-53.040,50.964,218.445
0.119,1.939,-0.556,-32.715,55.298,231.018
0.376,1.452,-0.356,-11.536,72.021,247.559
-0.720,0.574,0.123,-22.827,104.065,231.689
-0.175,2.914,-0.193,-60.486,128.662,120.972
0.758,2.429,-0.271,-45.837,123.840,38.940
0.923,2.319,-0.555,-8.057,115.234,-15.320
0.766,1.666,-0.380,27.161,104.675,-47.729
0.456,1.154,-0.344,16.479,97.839,-76.233
0.295,0.923,-0.390,18.982,96.619,-82.520
0.276,0.665,-0.337,23.865,90.698,-77.759
0.303,0.535,-0.322,30.273,80.139,-71.472
0.364,0.398,-0.320,29.297,68.176,-70.740
0.399,0.364,-0.370,20.813,60.913,-76.538
0.444,0.391,-0.372,12.207,55.359,-84.839
0.498,0.448,-0.345,7.996,43.030,-92.834
0.499,0.471,-0.391,7.935,32.837,-100.891
0.529,0.485,-0.384,6.470,17.517,-109.375
0.494,0.496,-0.417,3.296,4.944,-120.361
0.498,0.547,-0.387,-1.099,-11.108,-131.836
0.458,0.586,-0.388,-1.587,-29.785,-141.479
0.393,0.608,-0.401,-2.136,-47.302,-149.475
0.312,0.595,-0.394,-4.639,-63.293,-156.250
0.241,0.633,-0.378,-5.188,-79.468,-161.072
0.132,0.599,-0.403,-7.446,-89.355,-165.710
0.074,0.616,-0.390,-11.841,-95.642,-169.495
0.021,0.627,-0.380,-15.991,-99.976,-171.692
-0.027,0.632,-0.371,-20.752,-100.891,-173.462
-0.068,0.694,-0.379,-23.865,-101.013,-175.049
-0.103,0.804,-0.396,-20.874,-100.403,-176.270
-0.140,0.856,-0.412,-19.897,-96.252,-179.687
-0.164,0.892,-0.434,-24.353,-89.966,-184.082
-0.138,1.009,-0.428,-21.912,-88.623,-184.875
-0.159,1.034,-0.454,-14.709,-89.722,-182.983
-0.178,1.090,-0.496,-7.507,-89.417,-180.054
-0.187,1.124,-0.533,0.671,-91.919,-175.964
-0.192,1.177,-0.591,3.723,-93.750,-174.805
-0.191,1.217,-0.661,2.563,-98.572,-175.476
-0.211,1.340,-0.729,2.625,-111.389,-173.462
-0.280,1.424,-0.725,8.850,-128.113,-165.833
-0.523,1.411,-0.749,18.188,-139.648,-152.649
-0.763,1.320,-0.700,30.212,-148.499,-132.324
-1.118,1.243,-0.721,40.588,-149.597,-109.253
-1.302,1.170,-0.679,45.959,-150.330,-89.783
-1.568,1.251,-0.766,56.946,-151.794,-74.280
-1.713,1.164,-0.718,57.434,-141.846,-68.665
-2.109,0.980,-0.768,36.987,-110.413,-71.228
-1.914,1.054,-0.558,21.362,-94.360,-68.787
-2.234,1.134,-0.762,32.532,-82.886,-56.030
-2.198,1.330,-0.699,57.068,-75.989,-40.161
-2.319,0.688,-0.710,47.791,-77.393,-35.217
-2.172,0.899,-0.785,24.292,-72.693,-29.358
-2.288,0.536,-0.781,6.104,-58.594,-17.761
-2.230,0.503,-0.736,-8.972,-58.777,1.892
-2.288,0.468,-0.818,-2.075,-48.401,27.161
-2.182,0.370,-0.747,1.953,-44.739,51.880
-2.179,0.159,-0.783,-11.902,-31.128,69.458
-2.068,0.144,-0.688,-35.645,-23.315,85.083
-1.994,0.188,-0.591,-52.002,-25.513,103.638
-1.949,0.317,-0.507,-68.115,-20.996,116.150
-2.113,1.339,-0.176,-38.757,1.465,117.615
-1.793,1.698,0.486,46.204,26.428,121.704
-1.195,1.735,0.291,69.763,5.859,60.547
0.311,2.586,-0.646,187.988,-35.034,29.236
-0.635,0.103,-0.150,196.472,-68.787,17.761
0.208,0.202,0.039,41.077,-71.289,-20.203
-0.651,0.714,-0.518,10.315,-65.796,-33.569
-0.187,0.066,-0.302,-98.755,-31.311,-52.917
-0.059,1.359,-0.484,-101.501,2.441,-42.786
0.037,1.368,-0.375,-37.964,12.695,-21.301
0.090,0.976,-0.312,-25.085,-13.306,-4.822
-0.098,1.268,-0.443,-18.127,-7.446,12.817
-0.033,1.010,-0.434,-10.681,8.972,24.597
-0.174,0.951,-0.382,-19.104,13.855,32.471
0.127,1.042,-0.346,-22.827,25.085,35.950
-0.140,0.992,-0.309,-25.024,18.250,47.913
-0.005,1.000,-0.281,-11.230,-1.526,57.434
-0.132,0.825,-0.328,-7.935,-4.456,54.138
-0.169,0.868,-0.435,-3.662,-0.183,40.405
-0.253,0.968,-0.381,5.432,3.967,33.142
-0.136,0.976,-0.390,13.123,8.179,25.574
-0.121,0.857,-0.381,12.268,14.282,18.005
-0.266,0.909,-0.373,14.282,19.653,15.320
0.088,0.909,-0.332,10.864,23.010,10.864
-0.095,0.917,-0.377,11.780,21.606,9.644
-0.253,0.926,-0.367,15.991,22.583,12.268
0.137,1.049,-0.259,21.484,20.447,13.184
-0.158,0.947,-0.313,27.710,10.376,17.822
-0.343,0.940,-0.259,24.109,-4.150,24.658
-0.060,0.889,-0.248,17.212,-7.263,24.231
0.165,1.004,-0.314,20.508,0.671,18.555
-0.530,0.722,-0.397,16.235,-0.244,17.822
-0.373,0.889,-0.301,6.592,10.132,15.442
0.255,1.023,-0.242,12.451,20.386,8.118
-0.708,0.724,-0.490,16.479,13.428,9.644
-0.112,1.108,-0.328,13.672,18.555,7.751
-0.026,0.943,-0.272,27.344,13.062,13.245
-0.270,0.889,-0.427,23.315,2.686,11.963
-0.345,1.042,-0.323,30.396,6.653,17.578
-0.064,0.930,-0.253,33.447,3.601,18.921
-0.070,0.968,-0.292,32.776,-0.183,17.395
-0.326,0.961,-0.248,36.133,-1.343,21.240
-0.225,0.934,-0.240,32.410,-2.258,20.752
-0.081,0.975,-0.204,28.931,-0.122,17.761
-0.569,0.838,-0.327,29.602,1.160,21.484
0.053,1.056,-0.229,31.189,2.869,16.602
-0.257,0.859,-0.330,37.598,1.770,18.860
-0.536,0.887,-0.321,40.771,3.296,19.287
-0.169,0.883,-0.230,38.025,5.310,13.855
-0.334,0.799,-0.270,39.612,5.981,12.146
-0.239,1.027,-0.205,46.021,3.845,9.216
-0.373,0.742,-0.196,46.570,1.770,9.705
-0.247,0.690,-0.176,33.203,4.639,-0.732
-0.227,0.768,-0.166,22.034,5.005,-5.554
-0.301,0.727,-0.137,14.038,5.310,-6.470
0.040,0.768,-0.078,1.709,5.127,-14.832
-0.271,0.859,-0.200,-4.089,1.343,-13.855
-0.250,0.867,-0.130,-3.784,1.221,-13.306
-0.005,0.934,-0.130,-9.155,-3.418,-14.648
-0.345,0.888,-0.227,-9.399,-8.179,-9.094
-0.453,0.866,-0.210,-17.456,-6.836,-7.812
0.146,1.013,-0.130,-17.517,-7.202,-8.667
-0.241,0.830,-0.260,-14.282,-11.597,-4.944
-0.841,0.911,-0.343,-14.465,-9.583,1.343
0.461,1.059,-0.014,-19.226,-3.601,-3.845
-0.753,0.730,-0.407,-21.362,-8.301,4.028
-0.400,1.179,-0.264,-21.057,-4.028,4.089
0.078,1.124,-0.200,-15.198,-1.770,13.184
-0.424,0.901,-0.465,-5.005,8.911,18.494
-0.255,1.084,-0.299,-7.263,16.907,22.766
-0.352,1.027,-0.337,-0.854,14.038,32.288
-0.080,0.917,-0.263,-13.367,16.907,28.748
-0.318,1.125,-0.287,-4.883,16.296,40.344
-0.147,0.914,-0.253,-6.348,19.897,44.250
-0.428,1.120,-0.321,-3.357,20.203,51.819
-0.092,0.926,-0.196,-5.371,25.208,55.847
-0.176,0.979,-0.250,-13.733,23.865,59.875
-0.570,0.881,-0.428,-11.963,25.879,73.364
-0.182,1.019,-0.160,-22.217,35.706,76.660
-0.435,1.005,-0.289,-21.118,39.001,90.637
-0.329,0.852,-0.318,-27.283,43.579,102.356
-0.337,0.915,-0.349,-44.495,51.331,109.802
-0.273,0.891,-0.331,-57.861,59.387,121.338
-0.411,0.844,-0.393,-80.444,69.702,134.338
-0.325,1.153,-0.392,-99.426,80.261,145.569
-0.432,1.443,-0.334,-92.773,88.379,166.443
-0.624,1.357,-0.464,-95.703,88.562,189.026
-0.506,1.551,-0.657,-109.009,83.618,202.026
-0.739,1.579,-0.762,-122.314,79.895,211.975
-0.947,1.817,-0.877,-127.380,79.285,226.379
-0.437,1.876,-1.127,-138.245,68.665,226.868
-0.423,2.269,-1.160,-146.545,58.716,210.937
-1.024,2.481,-0.966,-128.845,64.148,214.661
-0.407,2.598,-0.723,-106.812,73.303,223.938
0.330,2.714,-0.623,-76.599,75.317,226.135
0.230,2.176,-0.393,-26.917,83.435,251.526
-0.281,1.096,-0.128,-25.024,103.455,256.042
-0.261,2.688,-0.297,-46.021,135.376,161.438
0.956,2.419,-0.224,-52.551,135.376,56.763
1.211,2.076,-0.493,-41.382,127.014,-19.165
0.911,1.564,-0.305,-15.808,122.009,-64.209
0.569,1.178,-0.259,-14.526,119.080,-89.233
0.417,0.887,-0.269,-6.531,117.798,-88.440
0.406,0.583,-0.265,0.183,114.685,-80.505
0.489,0.481,-0.218,12.695,101.196,-71.411
0.543,0.400,-0.225,26.306,84.167,-64.270
0.580,0.282,-0.263,25.085,71.777,-62.256
0.620,0.273,-0.304,13.062,61.829,-64.514
0.673,0.333,-0.321,1.404,49.255,-69.275
0.728,0.437,-0.324,-5.554,33.264,-76.172
0.761,0.539,-0.332,-8.911,14.282,-85.815
0.764,0.618,-0.340,-11.719,-6.470,-98.206
0.735,0.656,-0.337,-14.771,-28.381,-112.793
0.711,0.679,-0.267,-19.958,-58.105,-126.282
0.409,0.628,-0.408,-33.081,-74.585,-140.198
0.443,0.630,-0.207,-51.941,-87.830,-151.978
0.368,0.862,-0.174,-33.691,-123.596,-147.949
0.181,0.749,-0.216,-23.254,-137.329,-147.583
0.050,0.706,-0.250,-30.823,-130.737,-154.114
0.029,0.850,-0.245,-28.137,-124.329,-158.386
-0.005,0.931,-0.257,-16.785,-119.202,-161.194
-0.063,0.934,-0.278,-13.184,-108.582,-167.908
-0.089,0.984,-0.292,-17.395,-96.802,-176.514
-0.078,1.038,-0.318,-17.029,-93.140,-181.824
-0.097,1.093,-0.365,2.441,-95.825,-180.054
-0.130,1.017,-0.391,12.329,-98.450,-180.054
-0.201,0.998,-0.471,15.137,-93.994,-181.274
-0.215,1.019,-0.517,11.597,-88.806,-182.068
-0.194,1.122,-0.585,8.911,-89.722,-181.763
-0.139,1.224,-0.650,8.301,-98.694,-180.115
-0.176,1.387,-0.749,12.329,-111.938,-176.941
-0.312,1.364,-0.804,16.479,-125.000,-171.509
-0.552,1.320,-0.827,19.348,-138.611,-160.889
-0.848,1.294,-0.787,26.428,-153.748,-142.639
-1.250,1.297,-0.829,37.109,-161.011,-122.253
-1.603,1.246,-0.826,43.579,-160.950,-105.408
-2.303,1.087,-0.974,39.612,-135.193,-92.224
-2.093,1.242,-0.478,58.594,-141.174,-74.036
-2.970,0.854,-0.941,46.875,-90.698,-64.209
-2.663,1.709,-0.634,94.604,-78.369,-36.560
-3.000,0.370,-0.608,69.031,-61.523,-20.508
-2.959,0.593,-0.720,24.780,-37.781,-5.554
-2.773,0.662,-0.790,23.132,-31.433,14.099
-2.687,0.486,-0.869,9.888,-28.809,31.555
-2.473,0.402,-0.858,-7.812,-26.550,49.561
-2.316,0.303,-0.846,-17.456,-27.100,72.327
-2.638,0.049,-1.087,-50.659,-13.184,88.196
-2.488,0.581,-0.656,-42.114,1.892,107.605
-2.661,0.855,-0.337,-18.250,19.226,115.479
-2.930,3.913,-0.923,-13.733,27.771,37.415
0.250,2.434,-0.120,177.002,31.860,56.091
-0.356,0.243,-0.199,167.786,-54.016,37.598
-0.161,0.744,-0.089,112.732,-71.106,17.639
0.000,0.485,-0.428,69.275,-55.481,6.836
-0.222,-0.086,-0.286,-62.256,-32.715,-24.658
-0.416,0.697,-0.390,-103.088,-22.583,-25.757
0.111,1.703,-0.663,3.845,-13.794,-15.076
-0.411,0.673,-0.340,22.095,-11.292,-24.048
-0.384,1.112,-0.691,3.784,23.621,-27.405
0.313,1.396,0.006,36.194,15.747,-8.301
-0.002,0.517,-0.123,-23.071,-9.460,-12.939
-0.223,0.999,-0.353,-36.011,12.573,-13.000

-0.428,0.920,-0.476,-2.563,9.705,43.030
-0.109,0.988,-0.418,-5.920,21.118,47.241
-0.242,0.981,-0.340,-3.967,25.208,57.251
-0.555,0.930,-0.444,-9.705,30.640,70.557
-0.249,1.005,-0.350,-20.569,40.771,78.735
0.118,1.079,-0.275,-21.729,48.279,85.754
-0.801,0.819,-0.324,-29.419,49.133,101.868
-0.323,1.078,-0.368,-43.762,56.580,114.685
-0.092,0.924,-0.321,-42.603,60.486,123.962
-0.910,0.761,-0.569,-63.904,63.354,140.503
0.097,1.345,-0.524,-74.951,74.951,158.020
-0.626,0.931,-0.395,-74.585,86.304,178.040
-0.523,1.626,-0.610,-88.379,96.313,196.167
-0.503,1.783,-0.547,-87.463,101.868,224.792
-0.405,1.920,-0.712,-84.778,99.304,249.084
-0.669,1.923,-0.856,-75.134,94.482,270.203
-0.697,2.081,-1.006,-67.078,83.923,279.053
-0.444,2.203,-1.158,-63.110,67.139,274.963
-0.816,2.257,-1.159,-54.321,50.293,265.503
-0.292,2.516,-1.088,-40.405,35.156,251.648
-0.152,2.439,-0.875,-9.949,30.212,252.014
0.117,1.984,-0.595,9.827,30.945,264.404
0.658,1.462,-0.434,14.832,36.865,276.306
-0.254,1.079,-0.228,27.710,66.528,276.184
-0.382,2.205,-0.157,-20.691,109.985,163.086
0.822,2.600,-0.367,-53.711,120.667,44.128
1.209,2.381,-0.569,-15.076,115.723,-21.179
0.896,1.740,-0.418,4.272,111.206,-69.580
0.583,1.547,-0.404,24.841,106.995,-92.529
0.377,1.133,-0.411,51.514,102.234,-89.661
0.301,0.737,-0.404,63.354,95.642,-81.177
0.334,0.585,-0.369,78.125,78.735,-70.313
0.379,0.438,-0.405,91.248,58.350,-63.171
0.417,0.284,-0.474,84.534,46.631,-65.674
0.468,0.278,-0.525,64.819,41.809,-76.782
0.550,0.393,-0.542,47.241,35.950,-93.262
0.630,0.495,-0.537,35.339,25.635,-113.342
0.662,0.561,-0.529,27.710,12.817,-133.972
0.637,0.607,-0.511,22.705,-0.854,-152.649
0.568,0.627,-0.487,19.531,-14.954,-167.358
0.476,0.636,-0.451,19.165,-29.480,-177.917
0.369,0.620,-0.425,20.935,-43.335,-185.425
0.247,0.554,-0.412,21.790,-54.810,-189.941
0.137,0.496,-0.424,18.066,-62.134,-192.444
0.066,0.461,-0.437,10.925,-65.552,-193.176
0.046,0.436,-0.460,0.061,-65.857,-193.542
0.064,0.438,-0.482,-14.893,-64.636,-195.312
0.397,0.504,-0.238,-33.630,-85.632,-198.303
-0.167,0.839,-0.831,-27.100,-64.636,-203.003
0.232,0.335,-0.329,-79.407,-56.396,-229.187
0.262,1.366,-0.465,-71.777,-95.276,-220.520
0.088,0.898,-0.442,-22.827,-127.441,-201.477
-0.147,0.904,-0.558,-12.512,-115.295,-194.641
-0.226,0.928,-0.556,-0.183,-93.506,-184.753
-0.223,0.990,-0.594,-0.427,-72.754,-179.871
-0.003,1.206,-0.633,5.371,-76.721,-176.758
0.089,1.313,-0.777,6.775,-96.252,-175.842
0.151,1.268,-0.785,-2.197,-126.953,-171.204
-0.086,1.312,-0.814,-0.732,-157.227,-155.334
-0.518,1.280,-0.819,17.395,-183.838,-127.380
-0.944,1.028,-0.706,35.706,-204.590,-95.825
-1.567,0.750,-0.728,37.659,-202.820,-71.045
-2.122,0.432,-0.685,10.437,-184.570,-56.030
-2.604,0.454,-0.747,-36.133,-147.095,-52.673
-3.014,0.649,-0.826,-101.440,-102.234,-63.782
-3.079,1.166,-0.704,-152.161,-68.909,-77.820
-3.360,1.826,-0.779,-107.971,-47.241,-71.045
-3.767,1.542,-0.481,-44.373,-21.118,-55.786
-3.739,1.192,-0.425,-60.364,17.029,-40.405
-3.912,1.173,-0.463,-22.278,33.386,-1.831
-3.851,0.788,-0.464,16.296,37.048,41.687
-3.820,0.518,-0.572,-4.761,41.138,58.777
-4.000,3.752,-1.544,-18.921,43.335,17.517
-1.871,2.068,-1.020,230.835,59.631,79.041
-0.251,0.247,0.330,162.537,-13.855,47.546
0.135,1.341,-0.209,203.369,-60.120,32.166
0.226,1.524,0.006,247.864,-85.510,62.866
0.673,0.790,0.574,208.191,-93.018,80.872
-0.672,-1.069,0.003,27.222,-78.552,20.569
-0.252,-0.607,-0.391,-210.449,-39.246,-57.434
0.176,2.169,-0.761,-130.310,-18.799,-43.518
-0.510,1.009,-0.429,-43.640,-11.108,-21.362
0.287,1.063,-0.685,-53.467,-22.827,-35.889
-0.058,1.560,-0.668,21.484,-23.193,-5.615
-0.185,0.807,-0.433,45.105,-5.249,8.850
0.112,0.900,-0.148,21.912,-4.395,9.949
-0.070,0.818,-0.140,-11.780,1.648,7.263
0.020,1.008,-0.156,-42.480,-1.160,7.812
-0.094,1.194,-0.348,-38.818,-3.845,17.944
0.053,1.128,-0.350,-19.958,-2.441,31.006
-0.052,1.061,-0.404,-8.850,5.127,38.696
-0.106,0.726,-0.526,-13.306,37.354,28.625
0.135,0.870,-0.291,-14.954,37.537,23.926
-0.250,0.875,-0.334,-18.005,30.090,21.851
0.141,1.017,-0.251,-17.334,26.794,17.517
0.023,0.948,-0.240,-5.310,18.372,20.447
-0.211,0.835,-0.414,-12.573,15.259,15.503
-0.249,0.945,-0.452,-13.367,22.034,12.390
0.302,1.128,-0.257,2.869,10.315,14.771
-0.250,0.979,-0.384,15.503,1.831,21.484
-0.540,0.887,-0.464,17.151,5.920,27.405
0.431,1.000,-0.243,14.099,11.414,23.376
-0.440,0.819,-0.478,10.803,11.292,23.499
-0.316,0.964,-0.444,6.592,16.907,22.705
0.166,0.997,-0.185,10.803,16.418,25.024
-0.309,0.825,-0.392,11.536,11.719,26.428
-0.089,0.948,-0.290,9.766,10.315,25.024
0.010,0.883,-0.303,7.080,6.287,25.208
-0.174,0.847,-0.336,6.958,2.686,23.804
-0.223,0.939,-0.326,6.348,0.488,22.400
-0.062,0.861,-0.302,3.540,-1.709,20.630
-0.130,0.926,-0.297,7.690,-1.221,19.775
-0.380,0.826,-0.277,8.179,-0.671,19.531
-0.003,0.911,-0.326,7.629,2.930,14.954
-0.150,0.816,-0.258,3.235,-0.671,9.460
-0.502,0.841,-0.370,1.770,-2.747,10.010
-0.062,0.915,-0.319,-0.427,-3.662,5.798
-0.241,0.807,-0.245,-0.061,-12.390,7.446
-0.165,0.979,-0.352,1.221,-15.381,5.554
-0.443,0.789,-0.417,0.977,-1.953,2.869
-0.113,0.934,-0.305,3.357,1.221,0.061
-0.254,0.895,-0.346,5.676,4.700,-1.282
-0.408,0.888,-0.401,10.437,18.311,-1.343
0.006,0.861,-0.259,2.747,17.334,-5.249
-0.212,0.885,-0.311,-4.822,12.024,-6.409
-0.352,0.891,-0.401,-5.310,15.747,-3.784
0.104,0.990,-0.234,-6.592,12.451,-3.845
-0.275,0.854,-0.338,-6.348,4.578,0.854
-0.529,0.947,-0.371,-2.075,-4.028,7.690
0.010,0.975,-0.223,-0.488,-10.132,10.010
0.150,1.007,-0.240,-0.427,-10.071,10.681
-0.822,0.738,-0.499,-1.953,-9.094,20.081
0.076,1.038,-0.276,-2.136,-1.587,18.188
-0.244,0.776,-0.234,-9.216,-6.042,21.118
-0.650,0.917,-0.550,-12.817,-1.831,23.254
0.174,1.011,-0.198,-13.123,1.465,22.522
-0.460,0.818,-0.438,-13.000,4.883,29.663
-0.314,1.008,-0.436,-7.202,14.404,34.424
-0.146,1.026,-0.409,-6.714,19.714,39.734
0.007,0.963,-0.394,-5.676,23.437,44.678
-0.379,0.993,-0.430,-2.258,25.757,52.002
-0.357,0.886,-0.354,-3.723,29.968,60.059
-0.137,1.011,-0.314,-9.033,33.020,63.354
-0.317,0.902,-0.380,-15.381,35.278,69.641
-0.112,0.993,-0.261,-15.686,34.546,74.402
-0.717,0.796,-0.397,-19.653,33.325,84.717
-0.157,1.046,-0.300,-27.222,38.513,88.989
-0.469,0.771,-0.288,-30.823,41.321,92.957
-0.351,0.985,-0.398,-35.767,45.959,97.168
-0.395,0.781,-0.421,-41.687,48.584,103.882
-0.266,0.913,-0.456,-47.852,55.725,106.323
-0.380,0.874,-0.453,-56.946,60.486,114.014
-0.288,1.071,-0.498,-68.542,62.500,124.390
-0.379,1.262,-0.434,-73.364,70.313,137.207
-0.649,1.283,-0.509,-82.336,76.904,154.419
-0.285,1.758,-0.620,-87.219,76.294,170.044
-0.571,1.561,-0.615,-79.834,72.693,191.040
-0.807,1.655,-0.728,-74.463,70.068,206.726
-0.376,2.114,-0.855,-66.895,62.500,210.754
-0.237,2.179,-0.992,-50.598,50.781,211.487
-1.035,1.776,-1.006,-38.635,43.335,222.717
-0.462,2.088,-1.009,-40.039,34.241,218.018
-0.109,2.272,-0.977,-24.780,28.809,215.881
-0.285,1.747,-0.760,-6.287,33.081,240.784
0.270,1.204,-0.522,-21.423,45.105,256.836
-0.401,1.474,-0.322,-26.978,83.191,234.009
-0.411,2.281,0.159,-56.641,131.775,115.906
0.742,2.378,-0.369,-91.797,146.301,6.958
0.911,2.250,-0.445,-53.162,151.001,-36.682
0.549,1.559,-0.305,-39.185,152.954,-66.345
0.413,1.254,-0.418,-31.067,156.738,-71.960
0.381,0.945,-0.433,-27.039,156.250,-63.416
0.456,0.919,-0.421,-14.160,150.452,-53.833
0.608,0.928,-0.367,3.662,132.507,-51.514
0.705,0.883,-0.376,13.000,114.624,-58.838
0.752,0.840,-0.382,13.306,97.229,-72.021
0.748,0.816,-0.396,14.160,81.604,-86.365
0.763,0.788,-0.374,18.677,60.730,-98.572
0.734,0.728,-0.367,24.170,39.795,-109.558
0.698,0.656,-0.361,24.414,21.118,-121.155
0.669,0.623,-0.344,22.095,3.113,-132.751
0.604,0.578,-0.317,18.250,-13.123,-145.020
0.513,0.544,-0.304,13.611,-27.344,-155.640
0.449,0.525,-0.243,9.888,-39.978,-162.109
0.297,0.412,-0.310,-1.099,-41.687,-168.396
0.297,0.511,-0.262,-4.639,-51.086,-170.288
0.226,0.508,-0.305,-3.601,-56.396,-171.387
0.205,0.520,-0.346,-11.108,-54.871,-177.063
0.243,0.650,-0.386,-16.663,-54.504,-185.242
0.283,0.765,-0.418,-20.203,-57.068,-196.655
0.289,0.865,-0.431,-22.522,-60.974,-209.717
0.244,0.920,-0.431,-24.902,-65.613,-221.252
0.138,0.939,-0.416,-24.902,-70.984,-226.868
0.002,0.944,-0.417,-21.790,-76.050,-225.342
-0.122,0.894,-0.401,-17.456,-79.773,-217.346
-0.275,0.848,-0.443,-12.939,-76.599,-205.444
-0.329,0.800,-0.433,-14.160,-67.932,-193.176
-0.292,0.964,-0.497,-13.428,-58.899,-183.960
-0.122,1.233,-0.605,-10.132,-57.129,-183.777
0.073,1.391,-0.705,-10.437,-67.505,-192.383
0.071,1.484,-0.811,-10.803,-81.238,-199.280
-0.067,1.472,-0.776,-5.310,-101.624,-194.031
-0.399,1.387,-0.755,2.502,-116.394,-178.406
-0.776,1.216,-0.680,-2.136,-111.267,-165.222
-1.008,1.163,-0.428,-18.555,-100.769,-159.729
-1.414,1.349,-0.370,-12.512,-91.858,-149.231
-1.624,1.251,-0.190,-15.381,-56.580,-139.099
-1.676,1.417,-0.168,-14.404,-19.287,-123.413
-1.489,1.749,-0.241,31.006,-18.372,-101.807
-1.629,1.346,-0.454,18.433,-22.034,-93.506
-1.714,1.358,-0.622,6.958,-17.822,-88.562
-1.900,1.094,-0.678,-25.818,-13.428,-81.421
-1.898,1.130,-0.661,-34.302,-37.964,-61.279
-2.109,0.996,-0.748,-12.268,-62.988,-30.457
-2.293,0.513,-0.736,-25.818,-77.942,-0.427
-2.322,0.427,-0.683,-59.692,-86.060,26.123
-2.535,0.470,-0.684,-82.092,-83.130,50.354
-2.633,0.729,-0.498,-94.910,-82.825,78.552
-2.792,0.877,-0.478,-86.548,-66.467,106.934
-2.670,1.084,-0.278,-73.853,-55.847,133.362
-2.710,1.709,-0.144,-45.959,-25.940,141.418
-2.494,2.329,0.161,-103.577,21.240,117.859
-1.925,4.000,0.495,195.618,97.717,120.483
0.214,1.032,-0.057,363.159,-46.326,144.653
-0.288,0.312,-0.356,276.245,-64.819,89.294
0.474,0.667,0.251,195.435,-67.139,62.866
-0.975,-0.002,0.174,77.271,-52.124,48.706
0.167,0.133,-0.156,-65.125,-8.789,16.907
-0.171,1.203,-0.454,-58.655,5.981,13.123
-0.263,0.845,-0.426,-28.870,14.587,5.005
0.024,1.017,-0.358,-40.405,22.278,-4.944
0.256,1.187,-0.222,-34.546,11.536,7.812
0.167,1.064,-0.293,-30.457,-2.258,20.203
0.015,1.021,-0.269,-20.203,-5.676,28.320
0.053,0.925,-0.195,-17.456,-12.878,29.053
0.026,0.953,-0.321,-14.648,-14.771,25.574
0.062,0.947,-0.264,-19.043,-16.724,21.240
-0.254,1.067,-0.392,-16.724,-18.494,23.071

-0.732,0.911,-0.408,-8.362,11.169,30.396
-0.190,1.043,-0.456,-5.127,12.634,40.955
-0.097,0.922,-0.262,-7.996,14.404,45.715
-0.750,1.009,-0.566,-5.981,15.198,62.195
0.146,1.058,-0.301,-1.282,20.386,68.420
-0.471,0.837,-0.306,-9.155,26.794,74.402
-0.340,1.021,-0.364,-11.963,34.973,82.886
-0.081,1.012,-0.308,-20.874,37.109,89.050
-0.077,0.910,-0.348,-28.687,44.983,95.520
-0.444,1.008,-0.382,-37.231,55.359,101.807
-0.288,0.919,-0.410,-42.419,60.364,115.601
-0.157,0.977,-0.425,-46.814,64.270,124.023
-0.176,1.004,-0.501,-57.678,70.801,135.498
-0.302,1.198,-0.432,-57.922,80.933,148.071
-0.773,1.163,-0.450,-61.401,90.210,168.762
-0.261,1.661,-0.594,-64.636,95.276,185.608
-0.606,1.485,-0.533,-58.228,97.595,210.571
-0.430,1.767,-0.799,-58.655,94.604,229.492
-0.625,1.681,-0.806,-57.678,92.041,245.911
-0.534,2.092,-0.911,-60.059,82.397,244.446
-0.463,2.203,-0.985,-53.650,66.528,242.615
-0.665,2.391,-1.064,-42.297,50.781,234.558
-0.229,2.486,-0.958,-20.935,38.330,227.173
-0.091,2.346,-0.768,11.658,33.203,233.215
0.377,1.830,-0.517,37.964,33.081,250.305
0.549,1.379,-0.343,47.241,36.865,258.179
-0.313,1.467,-0.088,72.083,58.105,241.089
-0.137,1.415,-0.037,8.545,91.492,140.625
0.753,1.984,-0.394,-33.081,109.619,51.025
0.883,1.816,-0.341,-17.822,116.028,-0.732
0.682,1.543,-0.308,-16.663,120.972,-47.791
0.608,1.415,-0.343,-3.845,125.427,-72.876
0.541,1.123,-0.329,6.104,127.380,-83.740
0.553,0.969,-0.345,20.569,122.375,-88.318
0.627,0.868,-0.350,45.166,104.370,-90.271
0.638,0.721,-0.380,62.988,82.947,-94.482
0.610,0.592,-0.411,68.054,65.552,-102.478
0.593,0.497,-0.434,64.575,50.415,-112.915
0.575,0.426,-0.448,56.519,36.438,-124.512
0.555,0.379,-0.449,44.495,24.231,-137.451
0.533,0.379,-0.444,31.250,12.756,-151.184
0.515,0.402,-0.434,17.151,1.831,-163.818
0.496,0.459,-0.423,5.981,-8.484,-173.279
0.469,0.497,-0.412,-1.526,-20.386,-179.260
0.413,0.523,-0.401,-6.592,-36.560,-183.411
0.328,0.622,-0.480,-12.756,-46.997,-188.721
0.350,0.514,-0.382,-31.494,-55.725,-197.449
0.305,0.768,-0.407,-21.790,-82.214,-195.312
0.183,0.671,-0.402,-17.334,-95.215,-194.763
0.078,0.678,-0.449,-18.555,-95.520,-195.679
0.020,0.711,-0.452,-16.357,-89.905,-195.251
-0.038,0.729,-0.465,-19.592,-79.407,-197.266
-0.031,0.780,-0.470,-29.663,-68.115,-202.271
0.002,0.900,-0.501,-32.227,-61.707,-206.848
-0.001,0.977,-0.546,-33.081,-55.298,-211.182
0.028,1.082,-0.569,-26.611,-52.490,-212.769
0.029,1.143,-0.597,-20.020,-52.307,-211.975
0.058,1.204,-0.617,-10.376,-57.678,-208.496
0.099,1.227,-0.591,0.854,-75.378,-202.271
-0.004,1.200,-0.691,14.221,-87.952,-193.481
-0.083,1.101,-0.755,16.296,-94.910,-183.105
-0.120,1.044,-0.870,5.981,-100.220,-173.096
-0.146,0.952,-0.917,-16.418,-102.661,-160.706
-0.323,1.002,-0.892,-38.635,-106.934,-139.404
-0.628,1.150,-0.832,-49.194,-106.567,-110.596
-0.903,1.214,-0.730,-47.302,-110.962,-81.177
-1.149,1.197,-0.707,-50.415,-109.680,-60.486
-1.454,1.130,-0.934,-78.857,-83.923,-56.763
-1.416,1.729,-0.450,-64.636,-112.671,-46.936
-1.773,1.975,-0.571,-26.550,-111.816,-40.405
-1.943,2.432,-0.463,-0.977,-83.679,-41.382
-2.328,1.436,-0.248,-31.555,-71.716,-53.345
-2.692,1.442,-0.201,-70.984,-27.649,-64.270
-2.894,1.591,-0.086,-44.128,-11.353,-44.922
-3.047,1.473,0.013,17.639,0.183,-7.263
-3.151,0.949,0.042,58.655,15.503,33.813
-2.978,0.501,0.058,45.166,22.339,65.308
-2.726,0.525,-0.084,22.888,24.414,88.684
-2.456,0.368,-0.284,-3.784,20.630,106.140
-2.360,0.864,-0.309,-32.349,7.080,121.765
-2.276,1.498,-0.271,23.926,2.686,148.193
-2.021,2.144,-0.284,4.761,19.470,112.854
0.466,3.978,-0.532,279.968,14.160,139.099
0.523,0.067,0.443,297.791,-41.443,126.099
-0.336,-0.307,0.146,117.004,-81.970,34.973
-1.328,-0.134,-0.246,-17.639,-56.824,-16.541
0.211,0.358,-0.244,-154.358,-7.080,-33.386
0.393,1.761,-0.403,-103.760,-2.869,6.042
-0.199,0.857,-0.376,-52.002,-7.629,24.963
-0.096,1.365,-0.434,-21.790,-17.639,32.715
0.044,1.227,-0.535,51.392,-17.456,32.654
-0.236,0.741,-0.290,26.245,-16.174,14.221
-0.256,0.920,-0.271,3.540,-8.362,19.043
0.452,0.785,0.031,-32.043,-7.996,15.320
-0.396,0.883,-0.214,-41.321,-6.531,22.522
0.156,1.038,-0.236,-34.973,-4.700,23.865
-0.115,0.950,-0.286,-32.104,-2.258,21.973
-0.140,0.641,-0.577,-42.542,21.362,5.432
0.032,1.183,-0.464,-36.926,33.508,1.892
0.106,1.047,-0.214,-5.920,7.874,15.930
-0.038,1.082,-0.413,4.883,6.836,16.846
-0.065,0.736,-0.333,-7.507,18.188,10.864
0.159,0.987,-0.225,-12.695,19.714,6.226
-0.334,0.885,-0.297,-11.108,16.174,6.592
0.285,1.027,-0.294,-10.254,14.465,4.089
-0.015,0.986,-0.304,-7.568,8.240,6.653
-0.398,0.940,-0.399,-4.883,6.836,11.841
0.062,1.010,-0.329,-6.653,13.550,12.512
-0.170,0.930,-0.341,-4.700,14.771,15.320
-0.008,1.043,-0.316,-0.854,11.047,19.409
-0.215,0.944,-0.304,2.014,8.789,25.024
0.009,0.934,-0.343,1.038,7.019,25.208
-0.143,0.951,-0.306,1.343,2.502,26.611
-0.192,0.934,-0.340,2.808,-0.977,28.442
0.010,0.927,-0.326,2.136,1.160,26.062
-0.094,0.878,-0.319,2.014,1.343,22.583
-0.256,0.907,-0.359,3.357,1.099,21.362
0.067,0.918,-0.311,3.723,0.916,17.761
-0.185,0.894,-0.349,8.057,3.418,14.954
-0.288,0.934,-0.349,14.526,-2.014,17.883
-0.235,0.917,-0.302,15.747,-5.920,19.043
0.063,0.873,-0.350,14.221,4.089,10.071
-0.292,0.883,-0.334,13.123,8.484,5.249
-0.610,0.843,-0.377,15.869,8.118,9.766
0.375,0.958,-0.271,18.005,18.127,3.540
-0.535,0.722,-0.351,14.343,16.479,0.671
-0.342,0.921,-0.363,7.812,10.803,0.183
0.171,0.904,-0.182,9.521,7.568,-1.465
-0.398,0.776,-0.326,8.301,1.526,-2.075
-0.171,0.992,-0.258,8.789,-0.305,-3.662
0.041,0.874,-0.191,5.554,-4.578,-3.784
-0.147,0.844,-0.284,5.432,-10.620,-5.798
-0.296,1.022,-0.319,7.263,-10.498,-5.676
-0.075,0.838,-0.284,11.536,-10.132,-2.075
-0.055,0.945,-0.338,8.606,-5.615,-5.249
-0.515,0.892,-0.313,7.507,-8.179,-1.221
0.190,0.957,-0.256,2.625,-7.141,-4.333
-0.180,0.980,-0.293,7.690,-6.531,-1.648
-0.560,0.894,-0.357,7.629,-4.395,3.174
0.024,0.966,-0.220,0.671,-1.099,2.869
-0.340,0.905,-0.332,0.610,1.709,7.385
-0.147,0.984,-0.317,-2.319,1.770,8.972
-0.361,0.937,-0.302,-4.944,0.366,14.587
-0.074,0.909,-0.306,-8.911,1.465,15.930
-0.241,0.972,-0.344,-9.399,3.540,19.470
-0.270,0.971,-0.367,-5.676,6.897,25.879
0.070,0.965,-0.298,-7.690,12.146,26.367
-0.321,0.974,-0.390,-5.859,15.259,32.471
-0.092,0.988,-0.325,-3.784,16.846,37.170
-0.049,1.003,-0.285,-2.991,17.029,41.382
-0.460,0.942,-0.388,-3.479,19.409,49.927
-0.269,1.012,-0.339,-5.127,21.667,55.847
0.234,1.043,-0.297,-5.066,22.827,56.641
-0.611,0.914,-0.366,-1.587,24.048,66.895
-0.508,1.016,-0.389,-5.493,26.123,76.416
0.161,0.978,-0.183,-4.883,30.640,77.454
-0.943,0.881,-0.407,-9.094,33.508,89.294
-0.057,1.034,-0.315,-12.634,39.734,91.919
-0.411,0.774,-0.208,-18.860,45.471,93.384
-0.376,1.065,-0.383,-23.071,48.645,100.586
-0.163,0.922,-0.273,-31.006,53.467,103.455
-0.011,0.810,-0.285,-37.292,58.716,109.863
-0.328,0.870,-0.324,-51.086,57.922,111.877
-0.398,1.031,-0.369,-65.613,58.838,120.789
-0.177,1.114,-0.382,-78.369,58.105,130.432
-0.488,1.256,-0.416,-89.966,60.120,142.700
-0.476,1.861,-0.535,-90.942,58.044,158.264
-0.668,1.719,-0.558,-75.623,57.068,181.763
-0.530,1.958,-0.651,-64.697,53.955,194.092
-0.510,2.298,-0.717,-42.053,50.903,200.562
-0.212,2.448,-0.736,-12.085,37.109,203.857
-0.522,2.508,-0.896,19.836,15.259,206.177
-0.264,2.341,-0.891,52.673,6.042,213.623
0.007,2.040,-0.748,72.266,3.601,219.360
0.218,1.457,-0.532,83.313,4.761,237.976
0.270,0.818,-0.267,68.481,12.390,250.366
-1.125,1.340,0.241,32.288,63.477,187.683
0.028,2.337,0.127,17.273,118.652,81.665
0.553,1.588,-0.282,-31.921,148.560,-3.174
0.436,1.578,-0.323,-42.603,176.758,-49.072
0.303,1.280,-0.325,-34.058,191.589,-59.509
0.328,1.066,-0.469,-23.926,198.303,-53.589
0.515,0.959,-0.560,-10.315,195.496,-43.274
0.697,0.915,-0.545,2.991,185.913,-41.321
0.829,0.850,-0.554,15.747,165.222,-48.401
0.904,0.723,-0.584,24.109,137.695,-56.458
0.897,0.537,-0.586,19.226,109.863,-63.660
0.867,0.402,-0.557,6.714,82.581,-69.824
0.832,0.355,-0.520,-4.333,53.467,-74.097
0.789,0.359,-0.477,-10.681,22.888,-77.454
0.734,0.413,-0.443,-15.381,-7.019,-82.214
0.681,0.489,-0.412,-20.020,-34.973,-90.149
0.610,0.525,-0.372,-29.419,-59.204,-102.417
0.514,0.602,-0.333,-40.527,-77.026,-116.150
0.418,0.684,-0.293,-46.631,-88.196,-128.052
0.326,0.742,-0.257,-49.500,-94.971,-138.733
0.232,0.798,-0.235,-48.950,-97.534,-148.804
0.135,0.803,-0.209,-47.180,-95.581,-158.203
0.030,0.780,-0.196,-44.678,-89.539,-165.894
-0.087,0.731,-0.186,-43.823,-78.979,-171.082
-0.172,0.783,-0.208,-39.551,-67.322,-173.645
-0.060,1.116,-0.106,-12.390,-65.125,-172.852
-0.391,0.022,-0.416,-70.251,-3.479,-204.834
0.055,1.384,-0.328,-66.956,-6.531,-208.191
0.038,1.187,-0.306,-4.272,-30.273,-192.688
-0.059,1.097,-0.448,22.400,-27.771,-188.721
-0.047,0.981,-0.455,26.794,-15.747,-190.430
-0.026,0.951,-0.467,20.752,-9.766,-192.627
-0.025,0.941,-0.472,14.282,-12.817,-191.711
-0.024,0.935,-0.502,2.197,-20.935,-191.345
-0.008,0.900,-0.563,-21.240,-27.283,-194.153
0.074,0.960,-0.610,-44.189,-41.992,-191.650
0.070,1.083,-0.687,-49.561,-67.688,-176.514
-0.077,1.099,-0.679,-50.293,-93.567,-153.625
-0.323,1.167,-0.651,-47.119,-108.093,-127.686
-0.540,1.181,-0.561,-44.006,-114.258,-104.187
-0.759,1.285,-0.502,-46.143,-113.403,-88.562
-0.922,1.446,-0.404,-44.617,-109.680,-82.153
-1.208,1.402,-0.354,-47.974,-97.351,-83.435
-1.193,1.375,-0.240,-46.082,-92.896,-85.388
-1.552,1.338,-0.356,-42.908,-97.168,-80.933
-2.046,1.240,-0.431,-42.175,-65.613,-71.106
-2.057,1.113,-0.072,-34.607,-64.636,-58.228
-2.342,1.252,-0.182,-75.745,-39.673,-47.852
-2.349,1.514,-0.125,-68.115,-21.729,-32.898
-2.336,1.568,-0.043,-37.415,-19.348,-15.198
-2.300,1.612,-0.074,19.897,-29.114,7.324
-2.376,1.246,-0.207,63.599,-33.447,26.123
-2.299,0.770,-0.171,49.072,-37.842,38.635
-2.254,0.707,-0.269,36.072,-40.283,56.213
-2.200,0.509,-0.423,24.780,-29.724,73.303
-2.041,0.441,-0.469,8.789,-21.423,88.440
-1.850,0.416,-0.470,-0.549,-19.653,105.103
-1.688,0.303,-0.464,-13.977,-22.705,122.070
-1.791,0.970,-0.382,-29.968,-11.108,123.718
-1.377,1.581,0.107,29.419,13.855,124.878
-0.399,1.950,0.131,-4.272,-5.859,65.308
0.406,4.000,-1.072,253.418,-62.805,67.749

-0.392,0.937,-0.261,-2.014,1.892,10.437
-0.257,0.952,-0.286,-0.916,0.183,13.428
-0.056,0.989,-0.344,0.305,5.737,13.489
-0.349,0.925,-0.323,2.502,9.888,18.311
-0.268,0.905,-0.321,0.671,12.695,21.057
-0.195,1.056,-0.331,0.671,13.428,24.292
-0.282,0.953,-0.373,-0.793,14.709,31.067
-0.104,1.043,-0.266,-3.174,14.832,31.799
-0.525,1.028,-0.374,0.244,13.611,41.992
-0.109,0.946,-0.314,-2.258,13.367,48.401
-0.465,0.830,-0.261,-4.944,17.456,54.749
-0.228,1.060,-0.365,-7.080,24.658,62.988
-0.567,0.962,-0.305,-11.353,28.809,72.205
-0.211,1.092,-0.355,-14.160,33.997,81.787
-0.303,0.837,-0.299,-17.578,41.931,95.154
-0.381,0.936,-0.413,-28.076,51.575,104.980
0.045,1.046,-0.409,-37.659,62.561,112.793
-0.473,0.949,-0.334,-42.725,70.923,128.723
-0.429,1.172,-0.463,-55.420,78.735,142.761
-0.253,1.413,-0.323,-54.749,89.722,157.898
-0.380,1.265,-0.415,-47.974,95.703,182.068
-0.672,1.362,-0.479,-49.744,97.961,202.454
-0.263,1.827,-0.719,-57.556,93.689,213.135
-0.662,1.916,-0.739,-45.349,87.646,233.154
-0.983,1.698,-0.673,-42.786,81.604,249.390
-0.397,2.432,-1.065,-48.706,66.467,238.098
-0.901,2.360,-1.199,-34.119,48.523,235.474
-0.979,2.102,-0.983,-25.085,41.809,235.901
-0.099,2.205,-0.926,-26.489,33.875,219.910
0.138,2.012,-0.757,-11.719,33.691,216.858
0.342,1.561,-0.455,4.395,46.265,224.915
-0.459,1.339,-0.144,11.780,81.665,205.139
-0.129,1.131,-0.313,-63.293,125.061,104.919
0.765,2.061,-0.647,-101.318,154.968,16.174
0.828,1.799,-0.375,-93.506,161.377,-33.997
0.671,1.713,-0.422,-70.374,162.842,-62.378
0.663,1.498,-0.397,-33.752,157.593,-64.209
0.573,1.132,-0.350,-13.489,149.841,-60.486
0.595,0.919,-0.350,8.057,135.376,-55.542
0.651,0.753,-0.338,31.921,109.375,-50.964
0.654,0.615,-0.371,47.668,80.322,-49.316
0.633,0.455,-0.417,47.485,58.289,-52.612
0.635,0.346,-0.444,33.447,42.297,-60.913
0.660,0.335,-0.455,17.517,27.222,-71.960
0.691,0.375,-0.457,5.554,9.766,-84.351
0.703,0.425,-0.464,-5.188,-7.629,-99.304
0.677,0.468,-0.456,-16.479,-22.400,-116.821
0.612,0.518,-0.431,-26.855,-33.325,-134.094
0.527,0.586,-0.391,-33.325,-41.809,-147.583
0.432,0.668,-0.363,-33.508,-50.049,-155.884
0.336,0.698,-0.335,-27.710,-57.922,-159.912
0.248,0.676,-0.322,-20.935,-64.453,-162.598
0.177,0.620,-0.324,-17.090,-68.237,-165.527
0.103,0.551,-0.336,-20.203,-72.021,-169.922
0.255,0.397,-0.201,-30.823,-100.342,-174.438
-0.223,0.381,-0.672,-55.725,-71.228,-186.401
0.134,0.596,-0.339,-69.336,-64.331,-194.580
0.098,0.427,-0.413,-60.059,-89.050,-197.266
0.072,1.073,-0.539,-52.490,-91.553,-190.735
0.054,0.911,-0.557,-17.944,-88.501,-180.908
-0.003,0.917,-0.655,-12.207,-69.214,-182.983
0.056,0.902,-0.616,-23.560,-51.636,-190.674
0.061,1.002,-0.640,-39.368,-46.021,-197.205
0.113,1.156,-0.608,-39.490,-57.617,-196.289
0.091,1.263,-0.667,-32.227,-77.148,-191.101
0.084,1.270,-0.734,-31.677,-100.403,-184.265
0.003,1.281,-0.814,-38.574,-119.995,-176.331
-0.160,1.316,-0.825,-46.875,-136.780,-165.100
-0.393,1.387,-0.807,-48.462,-151.184,-147.217
-0.719,1.431,-0.766,-44.922,-160.400,-125.061
-1.122,1.408,-0.655,-37.842,-161.987,-101.257
-1.594,1.366,-0.518,-35.156,-159.790,-79.224
-2.700,1.005,-0.897,-61.890,-106.750,-69.153
-1.951,1.497,0.208,-43.945,-119.385,-51.453
-3.068,1.333,-0.615,7.202,-83.984,-36.255
-3.008,1.484,-0.408,8.301,-19.897,-41.626
-3.187,0.752,-0.056,-59.204,0.366,-49.072
-3.444,1.129,-0.281,-84.717,31.372,-41.443
-3.116,1.254,0.079,-65.369,40.833,-17.700
-3.133,1.016,-0.169,-40.466,46.692,11.597
-2.886,0.906,-0.207,-14.465,47.913,41.809
-2.641,0.586,-0.268,-7.507,50.598,67.505
-2.418,0.308,-0.359,-26.306,53.345,84.778
-2.289,0.875,-0.288,-36.194,43.884,91.736
-2.166,1.609,0.131,15.869,44.373,100.464
-1.733,3.355,0.147,28.076,29.724,24.414
0.247,3.665,-0.262,286.194,19.775,61.401
0.059,0.128,0.149,359.436,-56.030,64.819
0.058,0.659,0.251,240.356,-114.075,33.813
-0.082,0.794,-0.200,230.896,-104.248,26.184
-0.720,-0.734,-0.407,37.842,-87.891,-26.978
-0.231,0.403,-0.775,-79.712,-50.842,-45.837
0.010,1.726,-0.544,-13.489,-29.968,-11.292
-0.392,0.830,-0.488,31.006,-12.329,-1.160
0.080,1.018,-0.547,11.963,6.897,-12.024
0.028,1.119,-0.127,35.034,-11.963,0.977
-0.126,0.973,-0.394,61.279,-5.798,16.541
-0.110,0.249,0.017,-32.898,13.062,-15.564
0.261,1.201,-0.306,-51.819,9.033,-10.437
0.067,1.052,-0.311,-28.320,-15.808,16.846
-0.596,0.925,-0.783,-8.301,-17.761,31.433
-0.254,0.445,-0.720,-41.504,11.047,11.658
-0.281,1.371,-0.608,-12.695,13.184,26.978
0.058,0.906,-0.229,-2.014,2.136,36.804
-0.169,0.860,-0.224,-15.137,12.146,35.645
0.153,0.935,-0.115,-31.189,9.033,30.640
0.238,1.414,0.110,-21.484,-8.728,34.851
-0.383,0.681,-0.763,-38.940,18.127,20.325
0.069,1.224,-0.454,-16.541,11.597,23.682
-0.220,0.577,-0.493,-32.349,38.269,8.972
-0.174,1.087,-0.479,-18.494,21.118,13.062
0.103,0.851,-0.487,15.076,6.836,23.926
-0.050,0.884,-0.155,11.597,5.005,21.118
-0.390,1.073,-0.323,21.545,-2.441,30.457
0.044,0.774,-0.340,0.061,8.423,18.677
0.236,1.063,-0.350,9.888,8.972,17.090
-0.576,0.979,-0.384,16.968,10.559,23.376
-0.217,0.798,-0.298,8.667,12.024,26.794
0.267,0.798,-0.345,-11.719,15.625,10.925
-0.641,0.935,-0.353,1.282,20.508,16.663
-0.019,1.107,-0.207,19.470,1.587,25.757
-0.031,0.916,-0.332,39.490,7.812,28.259
-0.344,0.803,-0.351,31.494,10.193,21.545
-0.307,0.865,-0.286,21.301,11.658,17.578
0.054,0.805,-0.232,1.099,11.536,8.301
-0.114,0.895,-0.278,3.113,7.996,7.263
-0.305,0.897,-0.227,6.958,-1.526,8.362
-0.083,0.870,-0.292,8.728,-4.089,8.728
-0.031,0.964,-0.296,14.648,-6.714,8.118
-0.500,0.877,-0.195,20.508,-18.066,12.939
0.131,0.932,-0.357,16.724,-13.611,7.874
-0.303,0.772,-0.284,4.944,-2.258,-1.404
-0.524,0.922,-0.323,2.136,1.343,-1.099
-0.051,0.971,-0.298,10.193,1.221,0.305
-0.419,0.782,-0.298,7.751,8.545,-2.319
-0.100,0.950,-0.267,3.601,2.991,-5.005
-0.449,0.857,-0.286,3.357,3.113,-4.333
-0.083,0.862,-0.299,4.700,-1.465,-4.761
-0.314,0.861,-0.307,-4.272,2.686,-9.705
-0.337,0.892,-0.262,-7.874,-2.808,-8.301
0.076,0.961,-0.267,-8.667,-11.597,-9.583
-0.303,0.965,-0.333,-2.441,-10.376,-7.202
-0.338,0.892,-0.346,-1.526,-7.080,-4.517
0.118,0.998,-0.260,-1.709,-9.460,-5.859
-0.298,0.855,-0.319,0.366,-10.925,-2.502
-0.572,0.951,-0.359,-2.197,-4.333,0.000
0.108,1.046,-0.185,1.465,-4.822,1.709
0.012,0.952,-0.350,9.399,3.235,2.930
-0.862,0.804,-0.322,-3.052,3.723,7.812
0.403,0.946,-0.240,-9.583,-3.967,9.521
-0.553,0.904,-0.309,-13.794,0.732,12.268
-0.396,1.066,-0.470,-9.949,1.831,23.254
0.161,0.991,-0.247,-1.648,2.075,28.137
-0.433,0.928,-0.422,2.869,12.878,36.865
-0.428,0.953,-0.365,-0.549,19.348,41.260
-0.123,1.068,-0.252,-8.118,11.597,46.082
-0.006,0.932,-0.397,-17.273,19.775,49.255
-0.357,1.057,-0.312,-17.944,25.879,55.908
-0.303,1.003,-0.351,-12.390,28.015,69.275
-0.255,1.040,-0.315,-11.780,29.846,75.684
-0.214,0.990,-0.365,-17.395,37.964,83.618
-0.306,1.003,-0.243,-15.747,41.992,90.820
-0.573,0.868,-0.448,-19.165,44.678,102.051
-0.231,1.046,-0.363,-28.564,54.016,108.459
-0.335,0.859,-0.332,-33.508,59.998,121.704
-0.324,0.939,-0.360,-44.434,64.941,132.629
-0.432,0.976,-0.457,-61.523,72.876,143.188
-0.369,1.260,-0.381,-67.871,82.458,159.302
-0.475,1.206,-0.415,-73.975,93.872,177.063
-0.285,1.462,-0.510,-84.900,97.717,194.031
-0.498,1.585,-0.606,-86.060,98.450,213.196
-0.682,1.515,-0.724,-95.642,94.788,230.469
-0.448,1.846,-0.902,-106.323,89.844,238.953
-0.702,1.967,-1.004,-102.600,83.679,245.728
-0.809,2.007,-1.113,-100.586,71.533,245.056
-0.754,2.241,-1.199,-102.722,57.068,237.183
-0.144,2.547,-1.079,-97.290,51.392,222.168
-0.400,2.539,-0.717,-59.937,58.716,229.980
0.330,1.983,-0.484,-29.907,69.031,252.563
0.427,1.665,-0.300,-7.141,82.031,263.306
-0.313,1.660,-0.179,13.672,100.891,228.638
0.766,2.662,-0.299,-27.710,99.915,112.183
1.348,2.592,-0.635,-12.878,87.158,26.917
1.356,2.110,-0.544,34.607,66.895,-19.714
0.875,1.515,-0.498,53.223,52.429,-51.453
0.607,1.146,-0.484,61.829,46.082,-62.866
0.493,0.736,-0.459,64.453,44.312,-63.538
0.460,0.481,-0.406,59.570,42.175,-65.491
0.472,0.379,-0.395,61.707,37.231,-69.153
0.474,0.300,-0.417,63.110,32.532,-75.500
0.479,0.250,-0.456,51.941,33.752,-87.341
0.506,0.296,-0.478,35.156,38.208,-104.492
0.546,0.385,-0.474,23.010,39.246,-123.291
0.571,0.472,-0.457,16.785,35.278,-140.564
0.537,0.490,-0.478,11.719,30.396,-155.945
0.544,0.558,-0.437,12.695,15.686,-165.955
0.474,0.558,-0.458,17.944,0.183,-172.119
0.421,0.524,-0.449,17.395,-14.099,-177.490
0.355,0.519,-0.447,15.259,-29.297,-182.190
0.290,0.525,-0.460,11.475,-42.175,-187.012
0.219,0.537,-0.471,4.333,-50.110,-192.810
0.138,0.542,-0.481,-5.432,-53.345,-199.097
0.110,0.591,-0.473,-14.038,-56.702,-203.552
0.037,0.628,-0.509,-22.583,-54.626,-206.421
0.021,0.659,-0.464,-29.785,-52.490,-206.482
-0.065,0.711,-0.478,-28.992,-50.049,-201.233
-0.129,0.699,-0.448,-30.212,-46.936,-194.092
-0.196,0.758,-0.474,-33.020,-39.917,-186.462
-0.173,0.866,-0.513,-41.321,-33.142,-183.350
-0.098,0.998,-0.544,-44.617,-34.973,-184.204
-0.048,1.103,-0.572,-45.715,-38.940,-186.646
-0.056,1.212,-0.608,-46.936,-44.617,-186.279
-0.048,1.257,-0.613,-46.570,-54.138,-177.429
-0.186,1.214,-0.686,-48.096,-63.721,-158.813
-0.296,1.236,-0.733,-43.030,-82.092,-131.042
-0.386,1.222,-0.769,-42.603,-101.868,-104.797
-0.408,1.320,-0.766,-45.715,-124.817,-85.571
-0.535,1.505,-0.785,-46.753,-151.428,-75.562
-0.745,1.792,-0.753,-36.926,-177.185,-74.036
-0.811,1.927,-0.570,-17.151,-202.148,-78.979
-1.637,1.580,-0.578,-7.385,-191.467,-87.646
-2.251,1.534,-0.455,17.578,-195.496,-78.369
-3.178,0.945,-0.420,15.320,-120.117,-70.923
-3.135,1.335,0.066,12.024,-69.214,-56.946
-3.276,0.927,0.143,-0.305,-41.260,-45.654
-3.155,1.143,0.059,-7.629,-8.301,-38.208
-2.914,1.161,0.034,-0.549,7.935,-29.480
-2.725,1.115,-0.097,21.912,6.165,-15.320
-2.569,0.997,-0.277,52.673,0.793,4.578
-2.494,0.543,-0.460,46.814,8.240,23.437
-2.116,0.533,-0.461,40.100,1.831,45.044
-1.972,0.275,-0.608,41.260,-10.376,73.242
-1.919,0.042,-0.737,3.052,-10.559,89.172
-1.963,0.539,-0.521,-13.184,0.854,97.473
-1.732,1.099,-0.077,18.127,-0.244,107.666
-1.386,1.790,0.159,23.315,-10.803,58.472
0.572,3.373,-0.667,214.966,-37.170,55.786
-0.345,0.994,-0.024,340.637,-111.267,68.726

0.059,0.982,-0.376,-9.583,-0.549,7.507
-0.337,0.995,-0.386,-4.883,1.404,15.076
-0.315,0.939,-0.423,3.174,4.089,25.085
-0.180,0.941,-0.310,2.930,7.751,28.442
-0.228,0.935,-0.360,1.160,11.230,33.325
-0.383,0.996,-0.303,-1.099,14.648,37.354
-0.121,0.927,-0.309,-6.042,16.602,42.664
-0.245,0.948,-0.294,-9.644,18.555,45.654
-0.409,0.979,-0.337,-12.756,22.400,52.185
0.034,0.986,-0.311,-16.174,26.489,56.763
-0.433,0.893,-0.392,-17.578,28.015,63.293
-0.360,1.015,-0.403,-19.409,34.912,74.951
0.055,1.052,-0.379,-21.729,39.917,82.397
-0.422,0.994,-0.382,-23.743,41.199,94.849
-0.502,0.894,-0.452,-28.748,48.096,113.586
0.150,1.047,-0.463,-36.621,55.481,117.737
-0.375,0.970,-0.332,-35.767,64.575,128.540
-0.931,1.051,-0.475,-48.889,76.172,146.729
0.245,1.492,-0.418,-52.124,86.304,158.752
-0.853,0.882,-0.244,-44.006,93.079,179.016
-0.367,1.459,-0.708,-61.462,94.360,190.613
-0.431,1.562,-0.557,-61.157,100.464,211.304
-0.301,1.430,-0.647,-66.711,95.337,226.746
-0.678,1.826,-0.675,-68.420,93.933,237.793
-0.748,2.338,-0.766,-61.646,85.449,241.211
-0.347,2.865,-0.921,-32.715,68.298,239.197
-0.613,2.908,-0.948,10.254,44.128,241.455
-0.344,2.786,-0.992,52.185,22.949,240.845
0.183,2.533,-0.866,94.849,4.761,242.615
0.349,1.977,-0.715,129.456,-11.475,258.911
0.689,1.501,-0.545,139.771,-21.606,266.357
-0.640,1.622,0.054,169.495,7.202,244.141
-0.291,1.204,-0.071,84.900,55.847,123.901
0.529,1.547,-0.385,9.033,102.844,21.973
0.385,1.425,-0.205,-2.869,128.967,-31.311
0.235,1.097,-0.336,-17.700,153.259,-58.044
0.261,1.025,-0.391,-12.634,172.729,-53.345
0.376,0.843,-0.382,-9.460,182.312,-44.617
0.592,0.915,-0.416,2.075,182.556,-40.344
0.803,0.935,-0.465,21.606,168.579,-44.983
0.963,0.887,-0.481,37.781,140.137,-58.044
1.006,0.831,-0.510,49.561,105.591,-74.097
0.988,0.669,-0.514,55.420,69.885,-90.027
0.907,0.473,-0.512,49.133,37.659,-105.530
0.802,0.362,-0.495,34.607,11.108,-119.385
0.704,0.347,-0.442,19.348,-11.108,-131.470
0.633,0.396,-0.389,6.409,-32.043,-143.005
0.545,0.427,-0.341,-2.441,-51.636,-153.931
0.436,0.442,-0.318,-11.536,-66.650,-163.208
0.324,0.491,-0.311,-19.958,-74.890,-170.776
0.256,0.548,-0.306,-25.757,-77.759,-177.673
0.207,0.598,-0.295,-30.151,-77.698,-184.814
0.136,0.672,-0.281,-32.471,-74.890,-192.383
0.053,0.728,-0.266,-32.593,-70.007,-199.585
-0.036,0.729,-0.256,-34.119,-63.232,-207.031
-0.115,0.720,-0.264,-41.443,-58.716,-213.806
-0.006,0.681,-0.071,-42.114,-79.590,-213.623
-0.493,0.764,-0.705,-39.673,-29.785,-219.666
-0.166,0.086,-0.258,-121.277,-5.249,-246.033
0.165,1.405,-0.266,-62.012,-52.063,-221.558
-0.029,1.012,-0.468,-16.907,-73.181,-202.576
-0.086,0.990,-0.557,1.465,-62.500,-195.007
-0.159,1.006,-0.640,11.353,-41.138,-188.904
-0.037,0.994,-0.536,5.005,-35.217,-186.584
0.038,1.221,-0.666,4.639,-45.715,-183.044
0.158,1.258,-0.768,-3.845,-77.087,-183.594
0.194,1.213,-0.799,-20.630,-113.281,-185.547
-0.060,1.165,-0.893,-46.143,-142.395,-181.213
-0.392,1.175,-0.868,-64.636,-159.424,-166.748
-0.765,1.296,-0.721,-67.383,-172.913,-146.912
-1.281,1.392,-0.643,-65.369,-166.992,-132.019
-1.611,1.531,-0.396,-59.631,-154.541,-120.605
-1.890,1.515,-0.175,-62.134,-125.305,-108.887
-2.753,1.354,-0.226,-77.942,-48.157,-100.647
-2.715,2.025,-0.130,-32.837,-35.583,-74.463
-2.767,1.582,-0.125,-21.729,12.817,-68.115
-2.594,2.081,-0.160,8.484,30.640,-58.838
-2.509,1.423,-0.028,44.617,18.982,-46.692
-2.524,1.252,-0.249,21.729,23.621,-31.616
-2.451,0.906,-0.400,4.028,27.588,-12.024
-2.245,0.640,-0.417,-19.714,12.268,10.071
-2.137,0.566,-0.562,-40.466,0.183,32.715
-1.972,0.690,-0.487,-41.626,-21.362,60.608
-2.006,0.669,-0.566,-41.077,-23.437,82.581
-1.967,0.623,-0.465,-52.185,-5.676,93.567
-1.832,0.614,-0.232,-63.965,5.005,103.943
-1.760,0.964,-0.078,-79.834,17.395,107.544
-1.376,1.826,0.450,-20.752,39.978,110.229
-0.391,1.834,0.727,-27.344,36.987,64.026
1.170,4.000,-0.363,209.839,-24.841,70.129
-0.038,0.027,-0.498,329.895,-68.481,84.717
0.000,0.333,0.347,154.297,-68.542,54.382
-0.592,0.225,-0.286,77.026,-66.162,16.479
-0.137,0.651,-0.271,-16.296,-59.570,-13.733
-0.119,0.945,-0.508,-21.301,-47.485,0.610
-0.207,1.322,-0.507,17.822,-18.188,15.686
-0.085,0.714,-0.273,4.822,3.906,11.536
0.070,1.264,-0.185,11.108,5.676,20.325
-0.051,0.752,-0.146,-10.315,12.451,17.639
0.052,0.846,-0.187,-39.734,16.235,11.902
-0.007,0.779,-0.193,-70.129,30.701,3.662
0.051,1.109,-0.316,-62.683,24.231,4.700
0.211,1.062,-0.302,-43.152,7.324,10.437
-0.118,1.134,-0.380,-14.954,-9.277,22.705
0.240,1.032,-0.382,5.615,-18.311,24.353
-0.048,0.842,-0.345,-0.854,-9.277,16.541
-0.304,0.969,-0.308,1.770,-1.770,15.625
0.114,0.850,-0.223,-3.418,0.244,8.606
0.359,0.906,-0.251,-12.207,1.282,-0.793
-0.537,0.989,-0.375,-12.817,2.686,3.967
0.016,0.911,-0.410,-14.221,5.371,2.686
0.200,0.961,-0.336,-17.090,14.404,-2.563
-0.553,1.022,-0.479,-4.028,18.433,5.493
0.187,1.047,-0.266,6.470,17.456,8.057
0.005,0.895,-0.229,5.554,14.954,9.705
0.053,1.030,-0.340,7.446,13.855,13.245
-0.173,0.976,-0.215,6.470,8.911,17.212
0.029,0.923,-0.305,1.160,3.418,18.066
0.122,0.971,-0.329,-3.662,-0.793,17.151
-0.167,0.904,-0.327,-4.272,-2.930,18.372
-0.071,0.998,-0.345,-0.732,-2.747,17.578
0.107,0.975,-0.273,9.094,-4.883,20.020
-0.495,0.872,-0.393,9.827,3.357,18.555
0.226,0.970,-0.380,8.118,12.329,10.986
-0.145,0.848,-0.318,5.310,14.038,8.667
-0.384,0.964,-0.373,10.559,16.296,10.193
0.003,0.895,-0.270,11.780,15.686,7.385
-0.191,0.863,-0.267,11.597,14.404,5.737
-0.095,1.005,-0.293,13.855,6.226,4.456
-0.283,0.873,-0.264,17.517,-0.427,6.653
-0.025,0.977,-0.304,20.386,-3.296,5.493
-0.151,0.868,-0.297,15.381,-3.113,2.930
-0.231,0.932,-0.292,15.930,-5.005,4.211
0.083,0.958,-0.258,20.386,-8.301,3.906
-0.172,0.922,-0.275,18.494,-9.094,1.648
-0.226,0.880,-0.333,14.160,-5.249,0.488
0.095,0.927,-0.248,11.719,-5.188,-3.174
-0.152,0.890,-0.248,11.658,-7.812,-2.930
-0.381,0.929,-0.293,10.986,-5.981,-1.709
-0.097,0.863,-0.232,7.019,-4.211,-3.052
0.245,0.930,-0.218,1.587,-6.348,-9.277
-0.378,0.965,-0.332,4.761,-5.127,-5.127
-0.478,0.884,-0.319,7.080,-5.249,0.793
0.441,0.932,-0.159,1.160,-4.517,-6.287
-0.621,0.866,-0.356,-1.892,-2.502,-1.587
-0.115,1.017,-0.282,-0.549,-3.967,-1.221
0.092,0.847,-0.135,-6.042,-2.502,-2.441
-0.161,0.882,-0.361,-12.085,2.686,-1.282
-0.353,1.021,-0.254,-9.888,2.625,-1.099
-0.023,0.968,-0.253,-8.911,-0.366,2.563
0.076,0.939,-0.298,-10.071,2.625,2.380
-0.243,1.008,-0.313,-8.911,2.808,6.897
-0.172,0.916,-0.328,-6.287,1.648,11.841
0.024,1.023,-0.318,-4.822,4.272,16.235
-0.261,0.950,-0.354,-4.517,4.517,23.682
0.057,1.041,-0.298,-4.089,5.127,26.184
-0.285,0.969,-0.309,-4.333,5.188,35.400
-0.222,0.992,-0.303,-5.920,8.423,42.664
-0.145,0.969,-0.248,-12.573,12.390,46.021
-0.135,0.992,-0.312,-16.541,13.367,52.307
-0.376,1.015,-0.290,-19.958,14.893,58.594
-0.067,0.983,-0.350,-21.484,18.860,67.139
-0.249,0.980,-0.370,-20.691,23.499,73.853
-0.387,1.039,-0.348,-23.499,28.015,81.421
-0.014,1.078,-0.331,-25.146,33.630,88.318
-0.285,0.897,-0.311,-25.513,37.598,95.764
-0.234,0.951,-0.509,-31.494,42.053,105.530
0.016,0.943,-0.372,-38.452,48.462,111.694
-0.336,0.975,-0.412,-45.227,56.824,123.474
-0.557,1.036,-0.430,-53.040,69.092,141.479
-0.088,1.240,-0.388,-60.913,80.750,152.039
-0.378,1.223,-0.367,-54.993,92.346,169.434
-0.784,1.045,-0.456,-58.777,102.295,192.688
0.243,1.679,-0.573,-64.331,109.680,206.970
-0.757,1.030,-0.438,-50.476,117.432,238.098
-0.578,1.608,-0.838,-76.416,113.831,244.629
-0.627,2.199,-0.883,-87.158,106.873,257.690
-0.585,2.179,-0.826,-75.867,96.191,269.104
-0.611,2.434,-1.096,-53.772,82.336,263.000
-0.591,2.310,-1.121,-47.302,66.040,249.268
-0.278,2.505,-0.982,-27.588,54.565,244.141
-0.069,2.427,-0.776,0.000,45.166,245.239
0.411,2.104,-0.530,32.471,39.185,259.033
0.576,1.680,-0.350,54.382,37.964,265.625
-0.049,1.617,-0.249,69.336,49.194,246.582
0.080,1.390,-0.219,-11.841,70.862,134.644
0.985,2.404,-0.600,-43.579,82.397,34.363
1.191,1.932,-0.287,-15.930,76.599,-18.433
0.799,1.755,-0.332,-2.258,74.280,-61.768
0.665,1.562,-0.331,25.024,74.829,-75.378
0.496,1.097,-0.303,36.377,74.768,-79.102
0.472,0.875,-0.281,57.373,68.848,-76.904
0.496,0.672,-0.245,86.853,52.917,-71.106
0.463,0.473,-0.262,99.609,40.344,-71.594
0.425,0.363,-0.315,93.628,37.842,-80.933
0.425,0.324,-0.345,80.444,39.856,-95.276
0.447,0.318,-0.361,67.810,41.626,-111.877
0.474,0.329,-0.378,55.603,42.114,-129.944
0.489,0.364,-0.385,44.678,40.894,-148.193
0.493,0.398,-0.385,35.095,37.476,-164.795
0.474,0.411,-0.385,26.428,31.738,-177.734
0.449,0.427,-0.391,20.386,23.376,-186.401
0.429,0.411,-0.393,16.418,11.963,-191.223
0.394,0.372,-0.401,10.071,-0.977,-194.031
0.352,0.359,-0.417,1.648,-12.817,-195.251
0.296,0.359,-0.424,-11.597,-31.006,-196.167
0.186,0.458,-0.529,-30.762,-37.415,-199.646
0.266,0.246,-0.402,-65.430,-32.166,-209.961
0.384,0.953,-0.410,-40.833,-70.068,-197.998
0.252,0.638,-0.424,-30.090,-93.750,-192.749
0.150,0.613,-0.478,-52.979,-95.703,-196.960
0.082,0.905,-0.472,-49.927,-95.459,-192.444
-0.027,0.839,-0.460,-47.424,-89.966,-187.988
-0.102,0.975,-0.483,-45.349,-77.698,-184.021
-0.187,1.018,-0.532,-47.485,-57.922,-184.265
-0.099,1.138,-0.433,-51.025,-49.683,-185.364
-0.085,1.220,-0.437,-41.992,-55.542,-178.528
-0.107,1.105,-0.496,-35.522,-67.261,-161.926
-0.162,0.944,-0.537,-36.011,-82.520,-135.010
-0.420,0.851,-0.615,-50.049,-89.294,-107.971
-0.554,1.271,-0.668,-72.388,-95.215,-94.727
-0.553,1.920,-0.722,-74.219,-109.863,-93.140
-0.627,2.357,-0.745,-54.382,-134.949,-100.525
-0.795,2.464,-0.666,-23.010,-156.555,-111.511
-1.554,1.996,-0.612,3.601,-167.358,-118.469
-2.164,2.004,-0.486,55.969,-199.097,-101.074
-3.387,0.903,-0.716,43.457,-127.991,-92.285
-3.563,1.230,-0.206,25.757,-67.261,-70.190
-3.699,0.539,-0.099,4.578,-51.331,-46.082
-3.755,0.945,-0.118,-56.824,-5.432,-30.273
-3.472,1.239,-0.134,-56.274,22.278,-12.817
-3.216,1.415,-0.093,-27.954,17.822,7.629
-3.026,1.303,-0.208,34.485,9.277,38.757
-2.867,0.732,-0.325,55.542,9.888,68.115
-2.777,0.786,-0.302,34.790,-5.310,91.125
-4.000,3.985,-1.021,75.928,42.236,82.092
0.185,1.531,-0.031,250.366,19.836,113.892
0.768,0.193,0.407,141.235,-61.401,59.204

-0.282,0.932,-0.275,-12.939,-2.625,0.000
-0.114,1.074,-0.325,-8.240,-2.808,5.432
-0.349,0.979,-0.322,-5.371,-2.197,12.939
-0.046,0.974,-0.322,-4.028,0.244,16.663
-0.203,0.960,-0.327,-6.226,4.089,20.325
-0.196,0.992,-0.345,-5.493,7.812,25.818
0.094,0.971,-0.274,-9.277,10.986,26.733
-0.326,0.974,-0.340,-10.193,13.611,33.752
0.014,1.014,-0.340,-10.559,17.883,38.269
-0.132,0.967,-0.276,-10.498,17.395,44.556
-0.500,0.972,-0.365,-12.146,18.555,55.420
-0.138,1.046,-0.285,-15.015,22.583,63.782
0.258,1.024,-0.258,-17.334,25.330,66.101
-0.738,0.906,-0.305,-20.020,26.733,79.773
-0.150,1.071,-0.435,-26.123,28.931,89.844
-0.228,0.874,-0.200,-29.053,35.278,93.750
-0.661,0.990,-0.474,-41.138,39.917,107.483
0.212,0.985,-0.320,-42.908,46.814,116.699
-0.471,0.846,-0.383,-54.382,56.580,120.850
-0.460,1.085,-0.392,-59.387,67.932,135.498
-0.289,1.231,-0.372,-67.444,75.378,143.188
-0.117,1.198,-0.409,-66.040,84.656,162.598
-0.456,1.186,-0.480,-68.787,93.994,174.988
-0.411,1.440,-0.535,-75.684,100.891,194.763
-0.463,1.559,-0.573,-70.435,100.952,218.079
-0.290,1.563,-0.751,-75.928,95.520,232.361
-0.567,1.821,-0.820,-72.021,89.355,248.108
-0.924,1.723,-0.848,-69.214,84.534,260.986
-0.623,2.129,-1.150,-68.481,73.914,257.568
-0.749,2.190,-1.276,-63.049,58.838,251.770
-0.633,2.127,-1.163,-55.054,52.734,246.460
-0.425,2.087,-1.005,-44.861,55.786,245.911
0.219,1.904,-0.832,-38.879,61.523,249.146
0.425,1.704,-0.633,-35.583,76.843,251.282
0.025,1.448,-0.393,-22.583,110.718,249.939
-0.006,1.766,-0.099,-70.618,156.616,148.560
1.048,2.547,-0.603,-111.816,170.898,13.367
1.648,2.374,-0.625,-75.378,165.405,-51.514
1.046,1.958,-0.448,-52.856,157.410,-103.088
0.816,1.685,-0.423,-18.494,150.757,-122.375
0.581,1.248,-0.402,10.193,142.334,-114.441
0.471,0.876,-0.428,25.269,132.385,-101.929
0.565,0.706,-0.430,47.363,110.474,-88.501
0.676,0.605,-0.455,70.374,79.895,-80.200
0.730,0.478,-0.521,74.463,53.711,-84.351
0.774,0.410,-0.588,57.739,37.109,-99.182
0.836,0.422,-0.606,37.109,23.193,-117.493
0.871,0.431,-0.585,19.897,5.920,-135.132
0.864,0.484,-0.560,6.104,-13.428,-150.391
0.809,0.549,-0.530,-2.502,-33.203,-163.635
0.719,0.583,-0.490,-8.057,-52.612,-174.500
0.585,0.604,-0.439,-9.644,-71.533,-181.091
0.401,0.596,-0.406,-7.996,-93.567,-182.495
0.335,0.615,-0.220,-4.333,-119.690,-177.979
-0.018,0.224,-0.453,-27.649,-110.474,-181.030
0.137,0.570,-0.329,-31.372,-132.812,-174.316
0.094,0.724,-0.421,-4.761,-156.372,-164.185
-0.006,0.627,-0.518,-5.188,-149.963,-168.396
-0.047,0.754,-0.535,-10.620,-130.066,-175.964
-0.153,0.863,-0.590,-12.512,-103.638,-182.739
-0.138,0.949,-0.547,-11.475,-88.257,-189.148
-0.188,1.010,-0.606,-3.357,-81.177,-193.787
-0.195,0.983,-0.622,0.427,-76.538,-199.341
-0.214,0.943,-0.623,-4.211,-80.750,-204.895
-0.282,0.995,-0.727,-9.277,-79.712,-206.787
-0.201,1.128,-0.782,-12.146,-88.501,-203.247
-0.109,1.282,-0.960,-7.263,-101.929,-193.237
-0.093,1.287,-1.079,-3.540,-119.141,-178.101
-0.241,1.247,-1.095,1.038,-140.015,-157.898
-0.529,1.197,-1.137,-0.427,-154.358,-138.611
-0.802,1.183,-1.134,-6.592,-165.100,-124.939
-1.077,1.217,-1.077,-15.137,-174.561,-116.760
-1.402,1.255,-0.958,-22.522,-176.270,-112.671
-1.767,1.314,-0.812,-19.104,-174.377,-106.323
-2.158,1.433,-0.683,13.977,-179.077,-90.088
-2.895,0.737,-0.649,-6.531,-127.686,-79.834
-3.115,1.108,-0.319,-8.484,-83.435,-69.214
-3.414,0.870,-0.483,-80.933,-18.616,-73.242
-3.285,1.211,-0.185,-102.783,26.062,-68.237
-3.242,1.511,-0.094,-86.060,50.598,-52.795
-3.132,1.575,-0.067,-39.124,67.566,-29.785
-2.989,1.308,-0.098,9.644,76.843,-0.854
-2.785,0.846,-0.176,28.259,78.918,28.687
-2.469,0.522,-0.256,19.775,69.458,56.458
-2.112,0.335,-0.312,-2.563,49.133,81.421
-1.762,0.088,-0.318,-53.589,29.358,91.980
-1.739,1.372,-0.081,-32.532,39.673,97.351
-1.096,1.901,0.470,-14.038,56.824,55.176
0.612,4.000,0.254,223.938,41.626,61.584
0.628,0.668,-0.210,399.475,-53.467,91.980
-0.483,0.444,0.067,238.525,-56.641,64.453
-0.026,0.741,0.378,175.354,-88.684,45.898
-0.961,-1.059,-0.276,-13.306,-67.078,-7.507
0.176,1.032,-0.416,-97.534,-53.650,-20.813
-0.110,1.926,-0.644,-24.841,-65.063,14.587
-0.393,0.750,-0.689,21.301,-27.893,16.052
0.039,1.002,-0.377,2.686,-3.296,7.263
-0.091,1.314,-0.138,37.048,-3.113,29.602
0.302,0.625,-0.079,-0.427,-11.047,20.874
-0.006,0.761,-0.106,-46.631,-1.892,8.423
-0.033,0.870,-0.183,-71.716,-5.554,3.967
0.272,1.077,-0.372,-57.373,-14.099,11.230
-0.031,1.093,-0.445,-29.297,-13.184,23.804
-0.349,1.034,-0.527,-1.892,-9.155,31.799
0.014,0.938,-0.575,8.667,18.494,21.240
0.252,0.867,-0.264,-19.897,42.114,-2.014
-0.546,1.018,-0.243,-10.925,35.645,7.080
0.290,1.080,-0.147,-2.136,6.531,13.977
0.068,0.805,-0.115,-11.475,-5.554,10.925
-0.529,0.836,-0.559,-27.222,8.240,3.906
0.120,1.042,-0.382,-21.484,17.334,0.366
-0.073,0.924,-0.330,-8.972,14.404,4.578
0.076,1.114,-0.424,5.249,11.963,8.606
-0.218,0.915,-0.325,11.536,16.052,12.512
-0.051,0.902,-0.329,3.662,20.264,9.705
0.155,1.000,-0.338,-1.038,22.461,7.507
-0.179,0.918,-0.337,2.075,22.034,10.864
-0.011,0.983,-0.325,3.052,15.503,11.719
0.060,0.935,-0.324,5.493,9.277,13.184
-0.377,0.921,-0.280,7.446,2.563,15.503
0.266,0.993,-0.316,13.000,-6.592,14.465
-0.125,0.851,-0.305,10.803,-10.193,13.611
-0.428,0.960,-0.334,12.390,-13.184,17.273
0.039,0.933,-0.316,14.465,-13.794,17.639
-0.217,0.873,-0.310,12.756,-9.888,15.564
-0.131,0.995,-0.356,14.160,-7.874,13.977
-0.204,0.853,-0.237,16.296,-14.404,14.954
-0.052,0.930,-0.308,17.944,-16.541,12.939
-0.252,0.832,-0.376,14.282,1.343,5.310
-0.183,0.858,-0.291,12.085,5.310,1.343
-0.039,0.920,-0.258,16.479,3.662,-0.305
-0.068,0.897,-0.344,15.381,13.672,-6.165
-0.229,0.844,-0.287,10.376,14.587,-7.812
-0.003,0.914,-0.262,6.897,5.798,-9.460
-0.018,0.846,-0.236,-0.549,0.916,-12.756
-0.240,0.955,-0.311,-1.160,-0.793,-9.583
-0.309,0.947,-0.246,6.409,-7.141,-4.517
0.138,0.922,-0.271,7.324,-8.423,-8.728
-0.139,0.920,-0.276,7.263,-9.705,-9.949
-0.635,0.928,-0.310,12.085,-11.658,-2.563
0.463,0.932,-0.218,9.033,-13.916,-7.874
-0.494,0.797,-0.274,-8.423,-13.245,-11.780
-0.335,1.034,-0.451,-4.456,-8.728,-8.728
0.172,0.891,-0.223,-3.967,-6.104,-12.268
-0.298,0.880,-0.356,-6.531,-4.089,-9.644
-0.277,1.042,-0.349,3.296,-3.174,-8.057
0.109,0.924,-0.241,4.395,-6.592,-6.226
0.040,0.926,-0.297,5.066,-7.751,-6.409
-0.286,0.982,-0.317,3.906,-6.226,-6.409
-0.103,0.811,-0.277,-0.671,-6.592,-7.019
0.095,0.997,-0.227,-3.967,-5.676,-7.812
-0.388,0.918,-0.329,-4.395,-4.333,-2.747
0.134,0.990,-0.334,-4.272,-3.662,-3.723
-0.193,0.979,-0.327,-1.953,-1.953,2.747
-0.237,0.965,-0.368,4.639,-0.122,9.094
-0.085,0.943,-0.256,1.343,2.502,10.803
-0.107,0.925,-0.307,0.000,4.089,15.381
-0.311,1.027,-0.286,-0.671,5.066,18.860
-0.005,0.900,-0.303,-4.578,7.690,22.827
-0.160,0.919,-0.315,-9.338,11.230,25.085
-0.292,0.979,-0.334,-11.902,11.169,30.457
0.177,0.980,-0.328,-10.742,13.245,35.034
-0.257,0.985,-0.330,-13.855,19.043,41.199
-0.120,1.005,-0.352,-13.367,21.362,50.537
0.083,1.048,-0.302,-12.878,24.597,57.129
-0.287,0.939,-0.373,-13.611,24.658,71.533
-0.302,1.056,-0.400,-14.709,24.780,82.336
0.312,0.986,-0.298,-21.362,28.931,85.876
-0.505,0.958,-0.360,-22.339,34.119,98.022
-0.420,0.972,-0.448,-27.954,41.321,113.159
0.133,1.033,-0.257,-34.668,46.631,117.126
-0.843,0.871,-0.396,-49.316,52.551,133.179
0.122,1.263,-0.438,-59.143,62.134,145.264
-0.481,0.881,-0.279,-70.496,75.562,158.508
-0.363,1.295,-0.514,-81.970,91.248,175.476
-0.272,1.315,-0.464,-85.083,102.905,194.641
-0.140,1.458,-0.575,-90.698,112.061,214.172
-0.429,1.617,-0.687,-83.130,117.371,237.061
-0.580,1.793,-0.848,-81.360,114.624,255.676
